SubjectID	SubjectAge	SessionTime	TaskName	BlockCount	TrialCount_InTask	TrialCount_InBlock	AbortCode	HeldTooLong	HeldTooShort	MovedTooFar	SliderBarValue	SliderBarFilled	PreStim_Dur	Stim_Dur	Resp_Dur	VisualStim_Loc	AudioStim_Loc	VisualStim_Index	AudioStim_Index	FixCrossStimIndex	ResponseChar	RT	RT_Warning	LoadTrialTextures_StartFrame	LoadTrialTextures_EndFrame	LoadTrialTextures_StartTimeAbsolute	LoadTrialTextures_StartTimeRelative	LoadTrialTextures_EndTimeAbsolute	LoadTrialTextures_EndTimeRelative	LoadTrialTextures_Duration	LoadTrialStims_StartFrame	LoadTrialStims_EndFrame	LoadTrialStims_StartTimeAbsolute	LoadTrialStims_StartTimeRelative	LoadTrialStims_EndTimeAbsolute	LoadTrialStims_EndTimeRelative	LoadTrialStims_Duration	SetupTrial_StartFrame	SetupTrial_EndFrame	SetupTrial_StartTimeAbsolute	SetupTrial_StartTimeRelative	SetupTrial_EndTimeAbsolute	SetupTrial_EndTimeRelative	SetupTrial_Duration	FinishTrial_StartFrame	FinishTrial_EndFrame	FinishTrial_StartTimeAbsolute	FinishTrial_StartTimeRelative	FinishTrial_EndTimeAbsolute	FinishTrial_EndTimeRelative	FinishTrial_Duration	Delay_StartFrame	Delay_EndFrame	Delay_StartTimeAbsolute	Delay_StartTimeRelative	Delay_EndTimeAbsolute	Delay_EndTimeRelative	Delay_Duration	GazeCalibration_StartFrame	GazeCalibration_EndFrame	GazeCalibration_StartTimeAbsolute	GazeCalibration_StartTimeRelative	GazeCalibration_EndTimeAbsolute	GazeCalibration_EndTimeRelative	GazeCalibration_Duration	PreStim_StartFrame	PreStim_EndFrame	PreStim_StartTimeAbsolute	PreStim_StartTimeRelative	PreStim_EndTimeAbsolute	PreStim_EndTimeRelative	PreStim_Duration	StimPresentation_StartFrame	StimPresentation_EndFrame	StimPresentation_StartTimeAbsolute	StimPresentation_StartTimeRelative	StimPresentation_EndTimeAbsolute	StimPresentation_EndTimeRelative	StimPresentation_Duration	Response_StartFrame	Response_EndFrame	Response_StartTimeAbsolute	Response_StartTimeRelative	Response_EndTimeAbsolute	Response_EndTimeRelative	Response_Duration	Feedback_StartFrame	Feedback_EndFrame	Feedback_StartTimeAbsolute	Feedback_StartTimeRelative	Feedback_EndTimeAbsolute	Feedback_EndTimeRelative	Feedback_Duration	TimeWarning_StartFrame	TimeWarning_EndFrame	TimeWarning_StartTimeAbsolute	TimeWarning_StartTimeRelative	TimeWarning_EndTimeAbsolute	TimeWarning_EndTimeRelative	TimeWarning_Duration
0001	13	Session_08_01_24__11_06_08_0001	AV_Detection	1	1	1	0	0	0	0	null	False	1.53742	0.5	3	(0.0, 0.0, 0.0)	(0.0, 0.0, 0.0)	0	null	6	a	null	0	48497	48497	575.265	575.265	575.275	575.275	0.00994873	48498	48499	575.275	575.275	575.325	575.325	0.05004883	48500	48500	575.325	575.325	575.335	0.00994873	0.00994873	48598	48598	576.14	0.8150024	-1	-1	-1	-1	-1	-1	-1	-1	-1	-1	-1	-1	-1	-1	-1	-1	-1	48501	48596	575.335	0.00994873	576.135	0.8099976	0.8000488	-1	-1	-1	-1	-1	-1	-1	-1	-1	-1	-1	-1	-1	-1	48597	48597	576.135	0.8099976	576.14	0.8150024	0.005004883	-1	-1	-1	-1	-1	-1	-1
0001	13	Session_08_01_24__11_06_08_0001	AV_Detection	1	2	2	0	0	0	0	null	False	1.382653	0.5	3	(0.0, 0.0, 0.0)	(0.0, 0.0, 0.0)	1	null	6	a	0.4645386	0	48599	48599	576.15	0.8249512	576.16	0.8349609	0.01000977	48600	48601	576.16	0.8349609	576.175	0.8499756	0.01501465	48602	48602	576.175	0.8499756	576.19	0.01501465	0.01501465	48824	48824	578.05	1.875	-1	-1	-1	-1	-1	-1	-1	-1	-1	-1	-1	-1	-1	-1	-1	-1	-1	48603	48768	576.19	0.01501465	577.575	1.400024	1.38501	48769	48822	577.575	1.400024	578.04	1.86499	0.4649658	-1	-1	-1	-1	-1	-1	-1	48823	48823	578.04	1.86499	578.05	1.875	0.01000977	-1	-1	-1	-1	-1	-1	-1
0001	13	Session_08_01_24__11_06_08_0001	AV_Detection	1	3	3	0	0	0	0	null	False	1.731895	0.5	3	(0.0, 0.0, 0.0)	(0.0, 0.0, 0.0)	0	null	6	a	null	0	48825	48825	578.06	1.88501	578.065	1.890015	0.005004883	48826	48827	578.065	1.890015	578.085	1.909973	0.0199585	48828	48828	578.085	1.909973	578.1	0.01501465	0.01501465	48883	48883	578.55	0.4650269	-1	-1	-1	-1	-1	-1	-1	-1	-1	-1	-1	-1	-1	-1	-1	-1	-1	48829	48881	578.1	0.01501465	578.54	0.4550171	0.4400024	48769	48822	577.575	1.400024	578.04	1.86499	0.4649658	-1	-1	-1	-1	-1	-1	-1	48882	48882	578.54	0.4550171	578.55	0.4650269	0.01000977	-1	-1	-1	-1	-1	-1	-1
0001	13	Session_08_01_24__11_06_08_0001	AV_Detection	1	4	4	0	0	0	0	null	False	1.812151	0.5	3	(0.0, 0.0, 0.0)	(0.0, 0.0, 0.0)	null	5	6	a	0.6746216	0	48884	48884	578.56	0.4750366	578.565	0.4800415	0.005004883	48885	48886	578.565	0.4800415	578.59	0.5050049	0.02496338	48887	48887	578.59	0.5050049	578.6	0.01000977	0.01000977	49215	49215	581.325	2.735046	-1	-1	-1	-1	-1	-1	-1	-1	-1	-1	-1	-1	-1	-1	-1	-1	-1	48888	49105	578.6	0.01000977	580.415	1.825012	1.815002	49106	49166	580.415	1.825012	580.925	2.335022	0.5100098	49167	49213	580.925	2.335022	581.315	2.725037	0.3900146	49214	49214	581.315	2.725037	581.325	2.735046	0.01000977	-1	-1	-1	-1	-1	-1	-1
0001	13	Session_08_01_24__11_06_08_0001	AV_Detection	1	5	5	0	0	0	0	null	False	1.723162	0.5	3	(0.0, 0.0, 0.0)	(0.0, 0.0, 0.0)	2	3	6	a	0.3913574	0	49216	49216	581.335	2.744995	581.34	2.75	0.005004883	49217	49219	581.34	2.75	581.375	2.785034	0.03503418	49220	49220	581.375	2.785034	581.385	0.01000977	0.01000977	49475	49475	583.515	2.140015	-1	-1	-1	-1	-1	-1	-1	-1	-1	-1	-1	-1	-1	-1	-1	-1	-1	49221	49428	581.385	0.01000977	583.115	1.73999	1.72998	49429	49473	583.115	1.73999	583.51	2.13501	0.3950195	49167	49213	580.925	2.335022	581.315	2.725037	0.3900146	49474	49474	583.51	2.13501	583.515	2.140015	0.005004883	-1	-1	-1	-1	-1	-1	-1
0001	13	Session_08_01_24__11_06_08_0001	AV_Detection	1	6	6	0	0	0	0	null	False	1.325511	0.5	3	(0.0, 0.0, 0.0)	(0.0, 0.0, 0.0)	1	3	6	a	0.3146973	0	49476	49476	583.525	2.149963	583.535	2.159973	0.01000977	49477	49479	583.535	2.159973	583.56	2.184998	0.02502441	49480	49480	583.56	2.184998	583.565	0.005004883	0.005004883	49678	49678	585.225	1.664978	-1	-1	-1	-1	-1	-1	-1	-1	-1	-1	-1	-1	-1	-1	-1	-1	-1	49481	49640	583.565	0.005004883	584.9	1.339966	1.334961	49641	49676	584.9	1.339966	585.215	1.654968	0.3150024	49167	49213	580.925	2.335022	581.315	2.725037	0.3900146	49677	49677	585.215	1.654968	585.225	1.664978	0.01000977	-1	-1	-1	-1	-1	-1	-1
0001	13	Session_08_01_24__11_06_08_0001	AV_Detection	1	7	7	0	0	0	0	null	False	1.60694	0.5	3	(0.0, 0.0, 0.0)	(0.0, 0.0, 0.0)	null	3	6	a	null	0	49679	49679	585.235	1.674988	585.24	1.679993	0.005004883	49680	49681	585.24	1.679993	585.265	1.705017	0.02502441	49682	49682	585.265	1.705017	585.275	0.00994873	0.00994873	49860	49860	586.75	1.484985	-1	-1	-1	-1	-1	-1	-1	-1	-1	-1	-1	-1	-1	-1	-1	-1	-1	49683	49858	585.275	0.00994873	586.74	1.474976	1.465027	49641	49676	584.9	1.339966	585.215	1.654968	0.3150024	49167	49213	580.925	2.335022	581.315	2.725037	0.3900146	49859	49859	586.74	1.474976	586.75	1.484985	0.01000977	-1	-1	-1	-1	-1	-1	-1
0001	13	Session_08_01_24__11_06_08_0001	AV_Detection	1	8	8	0	0	0	0	null	False	1.192428	0.5	3	(0.0, 0.0, 0.0)	(0.0, 0.0, 0.0)	2	null	6	a	0.2564087	0	49861	49861	586.76	1.494995	586.765	1.5	0.005004883	49862	49863	586.765	1.5	586.79	1.524963	0.02496338	49864	49864	586.79	1.524963	586.8	0.01000977	0.01000977	50040	50040	588.265	1.475037	-1	-1	-1	-1	-1	-1	-1	-1	-1	-1	-1	-1	-1	-1	-1	-1	-1	49865	50008	586.8	0.01000977	588	1.210022	1.200012	50009	50038	588	1.210022	588.26	1.470032	0.2600098	49167	49213	580.925	2.335022	581.315	2.725037	0.3900146	50039	50039	588.26	1.470032	588.265	1.475037	0.005004883	-1	-1	-1	-1	-1	-1	-1
0001	13	Session_08_01_24__11_06_08_0001	AV_Detection	1	9	9	0	0	0	0	null	False	1.109358	0.5	3	(0.0, 0.0, 0.0)	(0.0, 0.0, 0.0)	null	4	6	a	0.4397583	0	50041	50041	588.275	1.484985	588.285	1.494995	0.01000977	50042	50043	588.285	1.494995	588.3	1.51001	0.01501465	50044	50044	588.3	1.51001	588.31	0.01000977	0.01000977	50233	50233	589.875	1.575012	-1	-1	-1	-1	-1	-1	-1	-1	-1	-1	-1	-1	-1	-1	-1	-1	-1	50045	50178	588.31	0.01000977	589.425	1.125	1.11499	50179	50231	589.425	1.125	589.865	1.565002	0.4400024	49167	49213	580.925	2.335022	581.315	2.725037	0.3900146	50232	50232	589.865	1.565002	589.875	1.575012	0.01000977	-1	-1	-1	-1	-1	-1	-1
0001	13	Session_08_01_24__11_06_08_0001	AV_Detection	1	10	10	0	0	0	0	null	False	1.007511	0.5	3	(0.0, 0.0, 0.0)	(0.0, 0.0, 0.0)	null	3	6	a	0.4248047	0	50234	50234	589.885	1.585022	589.89	1.590027	0.005004883	50235	50236	589.89	1.590027	589.915	1.61499	0.02496338	50237	50237	589.915	1.61499	589.925	0.01000977	0.01000977	50412	50412	591.375	1.460022	-1	-1	-1	-1	-1	-1	-1	-1	-1	-1	-1	-1	-1	-1	-1	-1	-1	50238	50359	589.925	0.01000977	590.94	1.025024	1.015015	50360	50410	590.94	1.025024	591.365	1.450012	0.4249878	49167	49213	580.925	2.335022	581.315	2.725037	0.3900146	50411	50411	591.365	1.450012	591.375	1.460022	0.01000977	-1	-1	-1	-1	-1	-1	-1
0001	13	Session_08_01_24__11_06_08_0001	AV_Detection	1	11	11	0	0	0	0	null	False	1.870099	0.5	3	(0.0, 0.0, 0.0)	(0.0, 0.0, 0.0)	0	5	6	a	0.2548218	0	50413	50413	591.385	1.470032	591.39	1.475037	0.005004883	50414	50416	591.39	1.475037	591.415	1.5	0.02496338	50417	50417	591.415	1.5	591.435	0.02001953	0.02001953	50674	50674	593.575	2.160034	-1	-1	-1	-1	-1	-1	-1	-1	-1	-1	-1	-1	-1	-1	-1	-1	-1	50418	50642	591.435	0.02001953	593.31	1.89502	1.875	50643	50672	593.31	1.89502	593.565	2.150024	0.2550049	49167	49213	580.925	2.335022	581.315	2.725037	0.3900146	50673	50673	593.565	2.150024	593.575	2.160034	0.01000977	-1	-1	-1	-1	-1	-1	-1
0001	13	Session_08_01_24__11_06_08_0001	AV_Detection	1	12	12	0	0	0	0	null	False	1.032043	0.5	3	(0.0, 0.0, 0.0)	(0.0, 0.0, 0.0)	2	5	6	a	0.1165771	0	50675	50675	593.585	2.169983	593.59	2.174988	0.005004883	50676	50678	593.59	2.174988	593.615	2.200012	0.02502441	50679	50679	593.615	2.200012	593.625	0.01000977	0.01000977	50820	50820	594.79	1.174988	-1	-1	-1	-1	-1	-1	-1	-1	-1	-1	-1	-1	-1	-1	-1	-1	-1	50680	50804	593.625	0.01000977	594.665	1.049988	1.039978	50805	50818	594.665	1.049988	594.785	1.169983	0.1199951	49167	49213	580.925	2.335022	581.315	2.725037	0.3900146	50819	50819	594.785	1.169983	594.79	1.174988	0.005004883	-1	-1	-1	-1	-1	-1	-1
0001	13	Session_08_01_24__11_06_08_0001	AV_Detection	1	13	13	0	0	0	0	null	False	1.502911	0.5	3	(0.0, 0.0, 0.0)	(0.0, 0.0, 0.0)	0	4	6	a	null	0	50821	50821	594.8	1.184998	594.81	1.195007	0.01000977	50822	50824	594.81	1.195007	594.835	1.219971	0.02496338	50825	50825	594.835	1.219971	594.84	0.005004883	0.005004883	50875	50875	595.25	0.4150391	-1	-1	-1	-1	-1	-1	-1	-1	-1	-1	-1	-1	-1	-1	-1	-1	-1	50826	50873	594.84	0.005004883	595.24	0.4050293	0.4000244	50805	50818	594.665	1.049988	594.785	1.169983	0.1199951	49167	49213	580.925	2.335022	581.315	2.725037	0.3900146	50874	50874	595.24	0.4050293	595.25	0.4150391	0.01000977	-1	-1	-1	-1	-1	-1	-1
0001	13	Session_08_01_24__11_06_08_0001	AV_Detection	1	14	14	0	0	0	0	null	False	1.099708	0.5	3	(0.0, 0.0, 0.0)	(0.0, 0.0, 0.0)	1	4	6	a	0.3249512	0	50876	50876	595.26	0.4250488	595.265	0.4300537	0.005004883	50877	50879	595.265	0.4300537	595.3	0.4650269	0.03497314	50880	50880	595.3	0.4650269	595.31	0.01000977	0.01000977	51053	51053	596.75	1.450012	-1	-1	-1	-1	-1	-1	-1	-1	-1	-1	-1	-1	-1	-1	-1	-1	-1	50881	51012	595.31	0.01000977	596.415	1.11499	1.10498	51013	51051	596.415	1.11499	596.74	1.440002	0.3250122	49167	49213	580.925	2.335022	581.315	2.725037	0.3900146	51052	51052	596.74	1.440002	596.75	1.450012	0.01000977	-1	-1	-1	-1	-1	-1	-1
0001	13	Session_08_01_24__11_06_08_0001	AV_Detection	1	15	15	0	0	0	0	null	False	1.153921	0.5	3	(0.0, 0.0, 0.0)	(0.0, 0.0, 0.0)	1	null	6	a	0.3065796	0	51054	51054	596.76	1.460022	596.765	1.465027	0.005004883	51055	51056	596.765	1.465027	596.785	1.484985	0.0199585	51057	51057	596.785	1.484985	596.79	0.005004883	0.005004883	51233	51233	598.265	1.480042	-1	-1	-1	-1	-1	-1	-1	-1	-1	-1	-1	-1	-1	-1	-1	-1	-1	51058	51196	596.79	0.005004883	597.95	1.165039	1.160034	51197	51231	597.95	1.165039	598.26	1.475037	0.3099976	49167	49213	580.925	2.335022	581.315	2.725037	0.3900146	51232	51232	598.26	1.475037	598.265	1.480042	0.005004883	-1	-1	-1	-1	-1	-1	-1
0001	13	Session_08_01_24__11_06_08_0001	AV_Detection	1	16	16	0	0	0	0	null	False	1.700178	0.5	3	(0.0, 0.0, 0.0)	(0.0, 0.0, 0.0)	2	null	6	a	0.2650146	0	51234	51234	598.275	1.48999	598.285	1.5	0.01000977	51235	51236	598.285	1.5	598.31	1.525024	0.02502441	51237	51237	598.31	1.525024	598.315	0.005004883	0.005004883	51475	51475	600.3	1.98999	-1	-1	-1	-1	-1	-1	-1	-1	-1	-1	-1	-1	-1	-1	-1	-1	-1	51238	51442	598.315	0.005004883	600.025	1.714966	1.709961	51443	51473	600.025	1.714966	600.29	1.97998	0.2650146	49167	49213	580.925	2.335022	581.315	2.725037	0.3900146	51474	51474	600.29	1.97998	600.3	1.98999	0.01000977	-1	-1	-1	-1	-1	-1	-1
0001	13	Session_08_01_24__11_06_08_0001	AV_Detection	1	17	17	0	0	0	0	null	False	1.506534	0.5	3	(0.0, 0.0, 0.0)	(0.0, 0.0, 0.0)	2	null	6	a	0.2483521	0	51476	51476	600.31	2	600.315	2.005005	0.005004883	51477	51478	600.315	2.005005	600.335	2.024963	0.0199585	51479	51479	600.335	2.024963	600.34	0.005004883	0.005004883	51692	51692	602.11	1.775024	-1	-1	-1	-1	-1	-1	-1	-1	-1	-1	-1	-1	-1	-1	-1	-1	-1	51480	51660	600.34	0.005004883	601.85	1.515015	1.51001	51661	51690	601.85	1.515015	602.1	1.765015	0.25	49167	49213	580.925	2.335022	581.315	2.725037	0.3900146	51691	51691	602.1	1.765015	602.11	1.775024	0.01000977	-1	-1	-1	-1	-1	-1	-1
0001	13	Session_08_01_24__11_06_08_0001	AV_Detection	1	18	18	0	0	0	0	null	False	1.889532	0.5	3	(0.0, 0.0, 0.0)	(0.0, 0.0, 0.0)	0	4	6	a	0.2467041	0	51693	51693	602.12	1.785034	602.125	1.790039	0.005004883	51694	51696	602.125	1.790039	602.15	1.815002	0.02496338	51697	51697	602.15	1.815002	602.16	0.01000977	0.01000977	51957	51957	604.32	2.170044	-1	-1	-1	-1	-1	-1	-1	-1	-1	-1	-1	-1	-1	-1	-1	-1	-1	51698	51925	602.16	0.01000977	604.06	1.910034	1.900024	51926	51955	604.06	1.910034	604.31	2.160034	0.25	49167	49213	580.925	2.335022	581.315	2.725037	0.3900146	51956	51956	604.31	2.160034	604.32	2.170044	0.01000977	-1	-1	-1	-1	-1	-1	-1
0001	13	Session_08_01_24__11_06_08_0001	AV_Detection	1	19	19	0	0	0	0	null	False	1.198435	0.5	3	(0.0, 0.0, 0.0)	(0.0, 0.0, 0.0)	null	4	6	a	0.5403442	0	51958	51958	604.325	2.175049	604.335	2.184998	0.00994873	51959	51960	604.335	2.184998	604.35	2.200012	0.01501465	51961	51961	604.35	2.200012	604.37	0.02001953	0.02001953	52195	52195	606.31	1.960022	-1	-1	-1	-1	-1	-1	-1	-1	-1	-1	-1	-1	-1	-1	-1	-1	-1	51962	52106	604.37	0.02001953	605.575	1.225037	1.205017	52107	52167	605.575	1.225037	606.085	1.734985	0.5099487	52168	52193	606.085	1.734985	606.3	1.950012	0.2150269	52194	52194	606.3	1.950012	606.31	1.960022	0.01000977	-1	-1	-1	-1	-1	-1	-1
0001	13	Session_08_01_24__11_06_08_0001	AV_Detection	1	20	20	0	0	0	0	null	False	1.206503	0.5	3	(0.0, 0.0, 0.0)	(0.0, 0.0, 0.0)	null	3	6	a	0.4384766	0	52196	52196	606.32	1.970032	606.325	1.975037	0.005004883	52197	52198	606.325	1.975037	606.345	1.994995	0.0199585	52199	52199	606.345	1.994995	606.35	0.005004883	0.005004883	52399	52399	608.01	1.665039	-1	-1	-1	-1	-1	-1	-1	-1	-1	-1	-1	-1	-1	-1	-1	-1	-1	52200	52344	606.35	0.005004883	607.56	1.215027	1.210022	52345	52397	607.56	1.215027	608	1.655029	0.4400024	52168	52193	606.085	1.734985	606.3	1.950012	0.2150269	52398	52398	608	1.655029	608.01	1.665039	0.01000977	-1	-1	-1	-1	-1	-1	-1
0001	13	Session_08_01_24__11_06_08_0001	AV_Detection	1	21	21	0	0	0	0	null	False	1.696433	0.5	3	(0.0, 0.0, 0.0)	(0.0, 0.0, 0.0)	2	null	6	a	0.3068237	0	52400	52400	608.02	1.674988	608.025	1.679993	0.005004883	52401	52402	608.025	1.679993	608.045	1.700012	0.02001953	52403	52403	608.045	1.700012	608.05	0.005004883	0.005004883	52645	52645	610.07	2.025024	-1	-1	-1	-1	-1	-1	-1	-1	-1	-1	-1	-1	-1	-1	-1	-1	-1	52404	52607	608.05	0.005004883	609.75	1.705017	1.700012	52608	52643	609.75	1.705017	610.06	2.015015	0.3099976	52168	52193	606.085	1.734985	606.3	1.950012	0.2150269	52644	52644	610.06	2.015015	610.07	2.025024	0.01000977	-1	-1	-1	-1	-1	-1	-1
0001	13	Session_08_01_24__11_06_08_0001	AV_Detection	1	22	22	0	0	0	0	null	False	1.217958	0.5	3	(0.0, 0.0, 0.0)	(0.0, 0.0, 0.0)	0	null	6	a	0.4802246	0	52646	52646	610.075	2.030029	610.085	2.039978	0.00994873	52647	52648	610.085	2.039978	610.1	2.054993	0.01501465	52649	52649	610.1	2.054993	610.11	0.01000977	0.01000977	52856	52856	611.825	1.725037	-1	-1	-1	-1	-1	-1	-1	-1	-1	-1	-1	-1	-1	-1	-1	-1	-1	52650	52796	610.11	0.01000977	611.335	1.234985	1.224976	52797	52854	611.335	1.234985	611.82	1.720032	0.4850464	52168	52193	606.085	1.734985	606.3	1.950012	0.2150269	52855	52855	611.82	1.720032	611.825	1.725037	0.005004883	-1	-1	-1	-1	-1	-1	-1
0001	13	Session_08_01_24__11_06_08_0001	AV_Detection	1	23	23	0	0	0	0	null	False	1.536095	0.5	3	(0.0, 0.0, 0.0)	(0.0, 0.0, 0.0)	0	3	6	a	0.2819214	0	52857	52857	611.835	1.734985	611.845	1.744995	0.01000977	52858	52860	611.845	1.744995	611.875	1.775024	0.0300293	52861	52861	611.875	1.775024	611.885	0.01000977	0.01000977	53082	53082	613.72	1.844971	-1	-1	-1	-1	-1	-1	-1	-1	-1	-1	-1	-1	-1	-1	-1	-1	-1	52862	53046	611.885	0.01000977	613.425	1.549988	1.539978	53047	53080	613.425	1.549988	613.71	1.834961	0.2849731	52168	52193	606.085	1.734985	606.3	1.950012	0.2150269	53081	53081	613.71	1.834961	613.72	1.844971	0.01000977	-1	-1	-1	-1	-1	-1	-1
0001	13	Session_08_01_24__11_06_08_0001	AV_Detection	1	24	24	0	0	0	0	null	False	1.094718	0.5	3	(0.0, 0.0, 0.0)	(0.0, 0.0, 0.0)	null	5	6	a	0.5805054	0	53083	53083	613.725	1.849976	613.735	1.859985	0.01000977	53084	53085	613.735	1.859985	613.75	1.875	0.01501465	53086	53086	613.75	1.875	613.76	0.01000977	0.01000977	53315	53315	615.66	1.909973	-1	-1	-1	-1	-1	-1	-1	-1	-1	-1	-1	-1	-1	-1	-1	-1	-1	53087	53218	613.76	0.01000977	614.86	1.109985	1.099976	53219	53279	614.86	1.109985	615.37	1.619995	0.5100098	53280	53313	615.37	1.619995	615.65	1.899963	0.2799683	53314	53314	615.65	1.899963	615.66	1.909973	0.01000977	-1	-1	-1	-1	-1	-1	-1
0001	13	Session_08_01_24__11_06_08_0001	AV_Detection	1	25	25	0	0	0	0	null	False	1.127478	0.5	3	(0.0, 0.0, 0.0)	(0.0, 0.0, 0.0)	1	5	6	a	0.2653198	0	53316	53316	615.67	1.919983	615.675	1.924988	0.005004883	53317	53319	615.675	1.924988	615.71	1.959961	0.03497314	53320	53320	615.71	1.959961	615.72	0.01000977	0.01000977	53489	53489	617.125	1.415039	-1	-1	-1	-1	-1	-1	-1	-1	-1	-1	-1	-1	-1	-1	-1	-1	-1	53321	53456	615.72	0.01000977	616.85	1.140015	1.130005	53457	53487	616.85	1.140015	617.12	1.410034	0.2700195	53280	53313	615.37	1.619995	615.65	1.899963	0.2799683	53488	53488	617.12	1.410034	617.125	1.415039	0.005004883	-1	-1	-1	-1	-1	-1	-1
0001	13	Session_08_01_24__11_06_08_0001	AV_Detection	1	26	26	0	0	0	0	null	False	1.988129	0.5	3	(0.0, 0.0, 0.0)	(0.0, 0.0, 0.0)	null	5	6	a	0.4453735	0	53490	53490	617.135	1.425049	617.145	1.434998	0.00994873	53491	53492	617.145	1.434998	617.17	1.460022	0.02502441	53493	53493	617.17	1.460022	617.175	0.005004883	0.005004883	53788	53788	619.625	2.455017	-1	-1	-1	-1	-1	-1	-1	-1	-1	-1	-1	-1	-1	-1	-1	-1	-1	53494	53732	617.175	0.005004883	619.17	2	1.994995	53733	53786	619.17	2	619.62	2.450012	0.4500122	53280	53313	615.37	1.619995	615.65	1.899963	0.2799683	53787	53787	619.62	2.450012	619.625	2.455017	0.005004883	-1	-1	-1	-1	-1	-1	-1
0001	13	Session_08_01_24__11_06_08_0001	AV_Detection	1	27	27	0	0	0	0	null	False	1.053126	0.5	3	(0.0, 0.0, 0.0)	(0.0, 0.0, 0.0)	2	4	6	a	0.4136963	0	53789	53789	619.635	2.465027	619.645	2.474976	0.00994873	53790	53792	619.645	2.474976	619.67	2.5	0.02502441	53793	53793	619.67	2.5	619.675	0.005004883	0.005004883	53972	53972	621.16	1.48999	-1	-1	-1	-1	-1	-1	-1	-1	-1	-1	-1	-1	-1	-1	-1	-1	-1	53794	53920	619.675	0.005004883	620.735	1.065002	1.059998	53921	53970	620.735	1.065002	621.15	1.47998	0.414978	53280	53313	615.37	1.619995	615.65	1.899963	0.2799683	53971	53971	621.15	1.47998	621.16	1.48999	0.01000977	-1	-1	-1	-1	-1	-1	-1
0001	13	Session_08_01_24__11_06_08_0001	AV_Detection	1	28	28	0	0	0	0	null	False	1.371647	0.5	3	(0.0, 0.0, 0.0)	(0.0, 0.0, 0.0)	null	4	6	a	0.4554443	0	53973	53973	621.17	1.5	621.175	1.505005	0.005004883	53974	53975	621.175	1.505005	621.2	1.530029	0.02502441	53976	53976	621.2	1.530029	621.21	0.00994873	0.00994873	54198	54198	623.05	1.849976	-1	-1	-1	-1	-1	-1	-1	-1	-1	-1	-1	-1	-1	-1	-1	-1	-1	53977	54141	621.21	0.00994873	622.585	1.384949	1.375	54142	54196	622.585	1.384949	623.045	1.844971	0.460022	53280	53313	615.37	1.619995	615.65	1.899963	0.2799683	54197	54197	623.045	1.844971	623.05	1.849976	0.005004883	-1	-1	-1	-1	-1	-1	-1
0001	13	Session_08_01_24__11_06_08_0001	AV_Detection	1	29	29	0	0	0	0	null	False	1.013995	0.5	3	(0.0, 0.0, 0.0)	(0.0, 0.0, 0.0)	null	4	6	a	0.4954224	0	54199	54199	623.06	1.859985	623.07	1.869995	0.01000977	54200	54201	623.07	1.869995	623.085	1.884949	0.01495361	54202	54202	623.085	1.884949	623.095	0.01000977	0.01000977	54387	54387	624.625	1.540039	-1	-1	-1	-1	-1	-1	-1	-1	-1	-1	-1	-1	-1	-1	-1	-1	-1	54203	54325	623.095	0.01000977	624.12	1.035034	1.025024	54326	54385	624.12	1.035034	624.62	1.535034	0.5	53280	53313	615.37	1.619995	615.65	1.899963	0.2799683	54386	54386	624.62	1.535034	624.625	1.540039	0.005004883	-1	-1	-1	-1	-1	-1	-1
0001	13	Session_08_01_24__11_06_08_0001	AV_Detection	1	30	30	0	0	0	0	null	False	1.614896	0.5	3	(0.0, 0.0, 0.0)	(0.0, 0.0, 0.0)	1	null	6	a	0.2705078	0	54388	54388	624.635	1.550049	624.645	1.559998	0.00994873	54389	54390	624.645	1.559998	624.66	1.575012	0.01501465	54391	54391	624.66	1.575012	624.67	0.01000977	0.01000977	54620	54620	626.575	1.915039	-1	-1	-1	-1	-1	-1	-1	-1	-1	-1	-1	-1	-1	-1	-1	-1	-1	54392	54586	624.67	0.01000977	626.295	1.63501	1.625	54587	54618	626.295	1.63501	626.57	1.910034	0.2750244	53280	53313	615.37	1.619995	615.65	1.899963	0.2799683	54619	54619	626.57	1.910034	626.575	1.915039	0.005004883	-1	-1	-1	-1	-1	-1	-1
0001	13	Session_08_01_24__11_06_08_0001	AV_Detection	2	31	1	0	0	0	0	null	False	1.278057	0.5	3	(0.0, 0.0, 0.0)	(0.0, 0.0, 0.0)	1	3	6	a	0.2489624	0	55321	55321	632.485	7.825012	632.495	7.835022	0.01000977	55322	55324	632.495	7.835022	632.535	7.875	0.03997803	55325	55325	632.535	7.875	632.545	0.01000977	0.01000977	55510	55510	634.085	1.549988	-1	-1	-1	-1	-1	-1	-1	-1	-1	-1	-1	-1	-1	-1	-1	-1	-1	55326	55479	632.545	0.01000977	633.825	1.290039	1.280029	55480	55508	633.825	1.290039	634.075	1.540039	0.25	53280	53313	615.37	1.619995	615.65	1.899963	0.2799683	55509	55509	634.075	1.540039	634.085	1.549988	0.00994873	-1	-1	-1	-1	-1	-1	-1
0001	13	Session_08_01_24__11_06_08_0001	AV_Detection	2	32	2	0	0	0	0	null	False	1.261874	0.5	3	(0.0, 0.0, 0.0)	(0.0, 0.0, 0.0)	1	null	6	a	0.2623901	0	55511	55511	634.095	1.559998	634.1	1.565002	0.005004883	55512	55513	634.1	1.565002	634.12	1.585022	0.02001953	55514	55514	634.12	1.585022	634.125	0.005004883	0.005004883	55699	55699	635.67	1.549988	-1	-1	-1	-1	-1	-1	-1	-1	-1	-1	-1	-1	-1	-1	-1	-1	-1	55515	55666	634.125	0.005004883	635.395	1.274963	1.269958	55667	55697	635.395	1.274963	635.66	1.539978	0.2650146	53280	53313	615.37	1.619995	615.65	1.899963	0.2799683	55698	55698	635.66	1.539978	635.67	1.549988	0.01000977	-1	-1	-1	-1	-1	-1	-1
0001	13	Session_08_01_24__11_06_08_0001	AV_Detection	2	33	3	0	0	0	0	null	False	1.194214	0.5	3	(0.0, 0.0, 0.0)	(0.0, 0.0, 0.0)	0	null	6	a	0.2790527	0	55700	55700	635.675	1.554993	635.685	1.565002	0.01000977	55701	55702	635.685	1.565002	635.71	1.589966	0.02496338	55703	55703	635.71	1.589966	635.72	0.01000977	0.01000977	55883	55883	637.21	1.5	-1	-1	-1	-1	-1	-1	-1	-1	-1	-1	-1	-1	-1	-1	-1	-1	-1	55704	55847	635.72	0.01000977	636.92	1.210022	1.200012	55848	55881	636.92	1.210022	637.2	1.490051	0.2800293	53280	53313	615.37	1.619995	615.65	1.899963	0.2799683	55882	55882	637.2	1.490051	637.21	1.5	0.00994873	-1	-1	-1	-1	-1	-1	-1
0001	13	Session_08_01_24__11_06_08_0001	AV_Detection	2	34	4	0	0	0	0	null	False	1.657126	0.5	3	(0.0, 0.0, 0.0)	(0.0, 0.0, 0.0)	1	4	6	a	0.2557373	0	55884	55884	637.22	1.51001	637.225	1.515015	0.005004883	55885	55887	637.225	1.515015	637.26	1.550049	0.03503418	55888	55888	637.26	1.550049	637.27	0.00994873	0.00994873	56121	56121	639.2	1.940002	-1	-1	-1	-1	-1	-1	-1	-1	-1	-1	-1	-1	-1	-1	-1	-1	-1	55889	56088	637.27	0.00994873	638.935	1.674988	1.665039	56089	56119	638.935	1.674988	639.195	1.934998	0.2600098	53280	53313	615.37	1.619995	615.65	1.899963	0.2799683	56120	56120	639.195	1.934998	639.2	1.940002	0.005004883	-1	-1	-1	-1	-1	-1	-1
0001	13	Session_08_01_24__11_06_08_0001	AV_Detection	2	35	5	0	0	0	0	null	False	1.188432	0.5	3	(0.0, 0.0, 0.0)	(0.0, 0.0, 0.0)	null	5	6	a	0.4040527	0	56122	56122	639.21	1.949951	639.22	1.959961	0.01000977	56123	56124	639.22	1.959961	639.245	1.984985	0.02502441	56125	56125	639.245	1.984985	639.25	0.005004883	0.005004883	56318	56318	640.86	1.61499	-1	-1	-1	-1	-1	-1	-1	-1	-1	-1	-1	-1	-1	-1	-1	-1	-1	56126	56268	639.25	0.005004883	640.445	1.200012	1.195007	56269	56316	640.445	1.200012	640.85	1.60498	0.4049683	53280	53313	615.37	1.619995	615.65	1.899963	0.2799683	56317	56317	640.85	1.60498	640.86	1.61499	0.01000977	-1	-1	-1	-1	-1	-1	-1
0001	13	Session_08_01_24__11_06_08_0001	AV_Detection	2	36	6	0	0	0	0	null	False	1.939848	0.5	3	(0.0, 0.0, 0.0)	(0.0, 0.0, 0.0)	null	3	6	a	0.4293213	0	56319	56319	640.87	1.625	640.875	1.630005	0.005004883	56320	56321	640.875	1.630005	640.895	1.649963	0.0199585	56322	56322	640.895	1.649963	640.9	0.005004883	0.005004883	56609	56609	643.285	2.390015	-1	-1	-1	-1	-1	-1	-1	-1	-1	-1	-1	-1	-1	-1	-1	-1	-1	56323	56555	640.9	0.005004883	642.845	1.950012	1.945007	56556	56607	642.845	1.950012	643.275	2.380005	0.4299927	53280	53313	615.37	1.619995	615.65	1.899963	0.2799683	56608	56608	643.275	2.380005	643.285	2.390015	0.01000977	-1	-1	-1	-1	-1	-1	-1
0001	13	Session_08_01_24__11_06_08_0001	AV_Detection	2	37	7	0	0	0	0	null	False	1.275572	0.5	3	(0.0, 0.0, 0.0)	(0.0, 0.0, 0.0)	2	null	6	a	0.2975464	0	56610	56610	643.295	2.400024	643.3	2.405029	0.005004883	56611	56612	643.3	2.405029	643.32	2.425049	0.02001953	56613	56613	643.32	2.425049	643.325	0.005004883	0.005004883	56804	56804	644.92	1.599976	-1	-1	-1	-1	-1	-1	-1	-1	-1	-1	-1	-1	-1	-1	-1	-1	-1	56614	56767	643.325	0.005004883	644.61	1.289978	1.284973	56768	56802	644.61	1.289978	644.91	1.589966	0.2999878	53280	53313	615.37	1.619995	615.65	1.899963	0.2799683	56803	56803	644.91	1.589966	644.92	1.599976	0.01000977	-1	-1	-1	-1	-1	-1	-1
0001	13	Session_08_01_24__11_06_08_0001	AV_Detection	2	38	8	0	0	0	0	null	False	1.008983	0.5	3	(0.0, 0.0, 0.0)	(0.0, 0.0, 0.0)	0	null	6	a	0.3492432	0	56805	56805	644.925	1.60498	644.935	1.61499	0.01000977	56806	56807	644.935	1.61499	644.95	1.630005	0.01501465	56808	56808	644.95	1.630005	644.96	0.00994873	0.00994873	56972	56972	646.335	1.384949	-1	-1	-1	-1	-1	-1	-1	-1	-1	-1	-1	-1	-1	-1	-1	-1	-1	56809	56930	644.96	0.00994873	645.975	1.024963	1.015015	56931	56970	645.975	1.024963	646.325	1.375	0.3500366	53280	53313	615.37	1.619995	615.65	1.899963	0.2799683	56971	56971	646.325	1.375	646.335	1.384949	0.00994873	-1	-1	-1	-1	-1	-1	-1
0001	13	Session_08_01_24__11_06_08_0001	AV_Detection	2	39	9	0	0	0	0	null	False	1.522885	0.5	3	(0.0, 0.0, 0.0)	(0.0, 0.0, 0.0)	0	3	6	a	0.2576294	0	56973	56973	646.345	1.394958	646.35	1.399963	0.005004883	56974	56976	646.35	1.399963	646.385	1.434998	0.03503418	56977	56977	646.385	1.434998	646.395	0.00994873	0.00994873	57193	57193	648.195	1.809998	-1	-1	-1	-1	-1	-1	-1	-1	-1	-1	-1	-1	-1	-1	-1	-1	-1	56978	57160	646.395	0.00994873	647.925	1.539978	1.530029	57161	57191	647.925	1.539978	648.185	1.799988	0.2600098	53280	53313	615.37	1.619995	615.65	1.899963	0.2799683	57192	57192	648.185	1.799988	648.195	1.809998	0.01000977	-1	-1	-1	-1	-1	-1	-1
0001	13	Session_08_01_24__11_06_08_0001	AV_Detection	2	40	10	0	0	0	0	null	False	1.798907	0.5	3	(0.0, 0.0, 0.0)	(0.0, 0.0, 0.0)	1	null	6	a	0.2993164	0	57194	57194	648.2	1.815002	648.21	1.824951	0.00994873	57195	57196	648.21	1.824951	648.235	1.849976	0.02502441	57197	57197	648.235	1.849976	648.245	0.01000977	0.01000977	57451	57451	650.36	2.125	-1	-1	-1	-1	-1	-1	-1	-1	-1	-1	-1	-1	-1	-1	-1	-1	-1	57198	57414	648.245	0.01000977	650.05	1.815002	1.804993	57415	57449	650.05	1.815002	650.35	2.11499	0.2999878	53280	53313	615.37	1.619995	615.65	1.899963	0.2799683	57450	57450	650.35	2.11499	650.36	2.125	0.01000977	-1	-1	-1	-1	-1	-1	-1
0001	13	Session_08_01_24__11_06_08_0001	AV_Detection	2	41	11	0	0	0	0	null	False	1.574019	0.5	3	(0.0, 0.0, 0.0)	(0.0, 0.0, 0.0)	2	3	6	a	0.2543335	0	57452	57452	650.37	2.13501	650.375	2.140015	0.005004883	57453	57455	650.375	2.140015	650.4	2.164978	0.02496338	57456	57456	650.4	2.164978	650.41	0.01000977	0.01000977	57679	57679	652.26	1.860046	-1	-1	-1	-1	-1	-1	-1	-1	-1	-1	-1	-1	-1	-1	-1	-1	-1	57457	57646	650.41	0.01000977	651.995	1.595032	1.585022	57647	57677	651.995	1.595032	652.25	1.850037	0.2550049	53280	53313	615.37	1.619995	615.65	1.899963	0.2799683	57678	57678	652.25	1.850037	652.26	1.860046	0.01000977	-1	-1	-1	-1	-1	-1	-1
0001	13	Session_08_01_24__11_06_08_0001	AV_Detection	2	42	12	0	0	0	0	null	False	1.482702	0.5	3	(0.0, 0.0, 0.0)	(0.0, 0.0, 0.0)	2	null	6	a	0.3310547	0	57680	57680	652.27	1.869995	652.275	1.875	0.005004883	57681	57682	652.275	1.875	652.295	1.89502	0.02001953	57683	57683	652.295	1.89502	652.3	0.005004883	0.005004883	57903	57903	654.125	1.830017	-1	-1	-1	-1	-1	-1	-1	-1	-1	-1	-1	-1	-1	-1	-1	-1	-1	57684	57861	652.3	0.005004883	653.785	1.48999	1.484985	57862	57901	653.785	1.48999	654.12	1.825012	0.335022	53280	53313	615.37	1.619995	615.65	1.899963	0.2799683	57902	57902	654.12	1.825012	654.125	1.830017	0.005004883	-1	-1	-1	-1	-1	-1	-1
0001	13	Session_08_01_24__11_06_08_0001	AV_Detection	2	43	13	0	0	0	0	null	False	1.039849	0.5	3	(0.0, 0.0, 0.0)	(0.0, 0.0, 0.0)	2	5	6	a	0.3294067	0	57904	57904	654.135	1.840027	654.145	1.849976	0.00994873	57905	57907	654.145	1.849976	654.17	1.875	0.02502441	57908	57908	654.17	1.875	654.175	0.005004883	0.005004883	58075	58075	655.56	1.390015	-1	-1	-1	-1	-1	-1	-1	-1	-1	-1	-1	-1	-1	-1	-1	-1	-1	57909	58033	654.175	0.005004883	655.22	1.049988	1.044983	58034	58073	655.22	1.049988	655.55	1.380005	0.3300171	53280	53313	615.37	1.619995	615.65	1.899963	0.2799683	58074	58074	655.55	1.380005	655.56	1.390015	0.01000977	-1	-1	-1	-1	-1	-1	-1
0001	13	Session_08_01_24__11_06_08_0001	AV_Detection	2	44	14	0	0	0	0	null	False	1.663702	0.5	3	(0.0, 0.0, 0.0)	(0.0, 0.0, 0.0)	null	4	6	a	0.4711914	0	58076	58076	655.57	1.400024	655.575	1.405029	0.005004883	58077	58078	655.575	1.405029	655.595	1.424988	0.0199585	58079	58079	655.595	1.424988	655.6	0.005004883	0.005004883	58338	58338	657.75	2.155029	-1	-1	-1	-1	-1	-1	-1	-1	-1	-1	-1	-1	-1	-1	-1	-1	-1	58080	58279	655.6	0.005004883	657.27	1.674988	1.669983	58280	58336	657.27	1.674988	657.745	2.150024	0.4750366	53280	53313	615.37	1.619995	615.65	1.899963	0.2799683	58337	58337	657.745	2.150024	657.75	2.155029	0.005004883	-1	-1	-1	-1	-1	-1	-1
0001	13	Session_08_01_24__11_06_08_0001	AV_Detection	2	45	15	0	0	0	0	null	False	1.655795	0.5	3	(0.0, 0.0, 0.0)	(0.0, 0.0, 0.0)	null	4	6	a	0.864624	0	58339	58339	657.76	2.165039	657.77	2.174988	0.00994873	58340	58341	657.77	2.174988	657.795	2.200012	0.02502441	58342	58342	657.795	2.200012	657.8	0.005004883	0.005004883	58675	58675	660.57	2.775024	-1	-1	-1	-1	-1	-1	-1	-1	-1	-1	-1	-1	-1	-1	-1	-1	-1	58343	58541	657.8	0.005004883	659.46	1.664978	1.659973	58542	58602	659.46	1.664978	659.97	2.174988	0.5100098	58603	58673	659.97	2.174988	660.56	2.765015	0.5900269	58674	58674	660.56	2.765015	660.57	2.775024	0.01000977	-1	-1	-1	-1	-1	-1	-1
0001	13	Session_08_01_24__11_06_08_0001	AV_Detection	2	46	16	0	0	0	0	null	False	1.056479	0.5	3	(0.0, 0.0, 0.0)	(0.0, 0.0, 0.0)	null	3	6	a	0.4328613	0	58676	58676	660.575	2.780029	660.585	2.789978	0.00994873	58677	58678	660.585	2.789978	660.6	2.804993	0.01501465	58679	58679	660.6	2.804993	660.61	0.01000977	0.01000977	58861	58861	662.12	1.52002	-1	-1	-1	-1	-1	-1	-1	-1	-1	-1	-1	-1	-1	-1	-1	-1	-1	58680	58807	660.61	0.01000977	661.675	1.075012	1.065002	58808	58859	661.675	1.075012	662.11	1.51001	0.4349976	58603	58673	659.97	2.174988	660.56	2.765015	0.5900269	58860	58860	662.11	1.51001	662.12	1.52002	0.01000977	-1	-1	-1	-1	-1	-1	-1
0001	13	Session_08_01_24__11_06_08_0001	AV_Detection	2	47	17	0	0	0	0	null	False	1.926743	0.5	3	(0.0, 0.0, 0.0)	(0.0, 0.0, 0.0)	null	3	6	a	0.5545654	0	58862	58862	662.125	1.525024	662.135	1.535034	0.01000977	58863	58864	662.135	1.535034	662.15	1.549988	0.01495361	58865	58865	662.15	1.549988	662.16	0.01000977	0.01000977	59190	59190	664.86	2.710022	-1	-1	-1	-1	-1	-1	-1	-1	-1	-1	-1	-1	-1	-1	-1	-1	-1	58866	59097	662.16	0.01000977	664.095	1.945007	1.934998	59098	59158	664.095	1.945007	664.6	2.450012	0.5050049	59159	59188	664.6	2.450012	664.85	2.700012	0.25	59189	59189	664.85	2.700012	664.86	2.710022	0.01000977	-1	-1	-1	-1	-1	-1	-1
0001	13	Session_08_01_24__11_06_08_0001	AV_Detection	2	48	18	0	0	0	0	null	False	1.673067	0.5	3	(0.0, 0.0, 0.0)	(0.0, 0.0, 0.0)	null	5	6	a	null	0	59191	59191	664.87	2.720032	664.875	2.725037	0.005004883	59192	59193	664.875	2.725037	664.895	2.744995	0.0199585	59194	59194	664.895	2.744995	664.91	0.01501465	0.01501465	59818	59818	670.12	5.225037	-1	-1	-1	-1	-1	-1	-1	-1	-1	-1	-1	-1	-1	-1	-1	-1	-1	59195	59396	664.91	0.01501465	666.595	1.700012	1.684998	59397	59457	666.595	1.700012	667.1	2.205017	0.5050049	59458	59816	667.1	2.205017	670.11	5.215027	3.01001	59817	59817	670.11	5.215027	670.12	5.225037	0.01000977	-1	-1	-1	-1	-1	-1	-1
0001	13	Session_08_01_24__11_06_08_0001	AV_Detection	2	49	19	0	0	0	0	null	False	1.833471	0.5	3	(0.0, 0.0, 0.0)	(0.0, 0.0, 0.0)	1	null	6	a	0.3313599	0	59819	59819	670.125	5.230042	670.135	5.240051	0.01000977	59820	59821	670.135	5.240051	670.15	5.255005	0.01495361	59822	59822	670.15	5.255005	670.17	0.02001953	0.02001953	60084	60084	672.35	2.200012	-1	-1	-1	-1	-1	-1	-1	-1	-1	-1	-1	-1	-1	-1	-1	-1	-1	59823	60043	670.17	0.02001953	672.01	1.860046	1.840027	60044	60082	672.01	1.860046	672.345	2.195007	0.3349609	59458	59816	667.1	2.205017	670.11	5.215027	3.01001	60083	60083	672.345	2.195007	672.35	2.200012	0.005004883	-1	-1	-1	-1	-1	-1	-1
0001	13	Session_08_01_24__11_06_08_0001	AV_Detection	2	50	20	0	0	0	0	null	False	1.177102	0.5	3	(0.0, 0.0, 0.0)	(0.0, 0.0, 0.0)	1	null	6	a	0.3114624	0	60085	60085	672.36	2.210022	672.37	2.220032	0.01000977	60086	60087	672.37	2.220032	672.385	2.235046	0.01501465	60088	60088	672.385	2.235046	672.395	0.00994873	0.00994873	60270	60270	673.9	1.514954	-1	-1	-1	-1	-1	-1	-1	-1	-1	-1	-1	-1	-1	-1	-1	-1	-1	60089	60230	672.395	0.00994873	673.58	1.194946	1.184998	60231	60268	673.58	1.194946	673.895	1.509949	0.3150024	59458	59816	667.1	2.205017	670.11	5.215027	3.01001	60269	60269	673.895	1.509949	673.9	1.514954	0.005004883	-1	-1	-1	-1	-1	-1	-1
0001	13	Session_08_01_24__11_06_08_0001	AV_Detection	2	51	21	0	0	0	0	null	False	1.730272	0.5	3	(0.0, 0.0, 0.0)	(0.0, 0.0, 0.0)	1	5	6	a	0.2714233	0	60271	60271	673.91	1.524963	673.92	1.534973	0.01000977	60272	60274	673.92	1.534973	673.95	1.565002	0.0300293	60275	60275	673.95	1.565002	673.96	0.00994873	0.00994873	60518	60518	675.975	2.024963	-1	-1	-1	-1	-1	-1	-1	-1	-1	-1	-1	-1	-1	-1	-1	-1	-1	60276	60483	673.96	0.00994873	675.695	1.744995	1.735046	60484	60516	675.695	1.744995	675.97	2.019958	0.2749634	59458	59816	667.1	2.205017	670.11	5.215027	3.01001	60517	60517	675.97	2.019958	675.975	2.024963	0.005004883	-1	-1	-1	-1	-1	-1	-1
0001	13	Session_08_01_24__11_06_08_0001	AV_Detection	2	52	22	0	0	0	0	null	False	1.745379	0.5	3	(0.0, 0.0, 0.0)	(0.0, 0.0, 0.0)	0	null	6	a	0.286499	0	60519	60519	675.985	2.034973	675.995	2.044983	0.01000977	60520	60521	675.995	2.044983	676.01	2.059998	0.01501465	60522	60522	676.01	2.059998	676.025	0.01495361	0.01495361	60768	60768	678.075	2.065002	-1	-1	-1	-1	-1	-1	-1	-1	-1	-1	-1	-1	-1	-1	-1	-1	-1	60523	60732	676.025	0.01495361	677.78	1.769958	1.755005	60733	60766	677.78	1.769958	678.07	2.059998	0.2900391	59458	59816	667.1	2.205017	670.11	5.215027	3.01001	60767	60767	678.07	2.059998	678.075	2.065002	0.005004883	-1	-1	-1	-1	-1	-1	-1
0001	13	Session_08_01_24__11_06_08_0001	AV_Detection	2	53	23	0	0	0	0	null	False	1.52325	0.5	3	(0.0, 0.0, 0.0)	(0.0, 0.0, 0.0)	2	4	6	a	0.2582397	0	60769	60769	678.085	2.074951	678.095	2.084961	0.01000977	60770	60772	678.095	2.084961	678.12	2.109985	0.02502441	60773	60773	678.12	2.109985	678.125	0.005004883	0.005004883	60988	60988	679.92	1.799988	-1	-1	-1	-1	-1	-1	-1	-1	-1	-1	-1	-1	-1	-1	-1	-1	-1	60774	60955	678.125	0.005004883	679.65	1.529968	1.524963	60956	60986	679.65	1.529968	679.91	1.789978	0.2600098	59458	59816	667.1	2.205017	670.11	5.215027	3.01001	60987	60987	679.91	1.789978	679.92	1.799988	0.01000977	-1	-1	-1	-1	-1	-1	-1
0001	13	Session_08_01_24__11_06_08_0001	AV_Detection	2	54	24	0	0	0	0	null	False	1.377964	0.5	3	(0.0, 0.0, 0.0)	(0.0, 0.0, 0.0)	null	5	6	a	0.4468384	0	60989	60989	679.925	1.804993	679.935	1.815002	0.01000977	60990	60991	679.935	1.815002	679.95	1.830017	0.01501465	60992	60992	679.95	1.830017	679.96	0.00994873	0.00994873	61214	61214	681.805	1.85498	-1	-1	-1	-1	-1	-1	-1	-1	-1	-1	-1	-1	-1	-1	-1	-1	-1	60993	61158	679.96	0.00994873	681.345	1.394958	1.38501	61159	61212	681.345	1.394958	681.795	1.844971	0.4500122	59458	59816	667.1	2.205017	670.11	5.215027	3.01001	61213	61213	681.795	1.844971	681.805	1.85498	0.01000977	-1	-1	-1	-1	-1	-1	-1
0001	13	Session_08_01_24__11_06_08_0001	AV_Detection	2	55	25	0	0	0	0	null	False	1.706855	0.5	3	(0.0, 0.0, 0.0)	(0.0, 0.0, 0.0)	2	null	6	a	0.2565918	0	61215	61215	681.81	1.859985	681.82	1.869995	0.01000977	61216	61217	681.82	1.869995	681.845	1.894958	0.02496338	61218	61218	681.845	1.894958	681.85	0.005004883	0.005004883	61454	61454	683.825	1.980042	-1	-1	-1	-1	-1	-1	-1	-1	-1	-1	-1	-1	-1	-1	-1	-1	-1	61219	61423	681.85	0.005004883	683.56	1.715027	1.710022	61424	61452	683.56	1.715027	683.82	1.975037	0.2600098	59458	59816	667.1	2.205017	670.11	5.215027	3.01001	61453	61453	683.82	1.975037	683.825	1.980042	0.005004883	-1	-1	-1	-1	-1	-1	-1
0001	13	Session_08_01_24__11_06_08_0001	AV_Detection	2	56	26	0	0	0	0	null	False	1.594679	0.5	3	(0.0, 0.0, 0.0)	(0.0, 0.0, 0.0)	0	5	6	a	0.2816772	0	61455	61455	683.835	1.98999	683.845	2	0.01000977	61456	61458	683.845	2	683.875	2.030029	0.0300293	61459	61459	683.875	2.030029	683.885	0.01000977	0.01000977	61686	61686	685.775	1.899963	-1	-1	-1	-1	-1	-1	-1	-1	-1	-1	-1	-1	-1	-1	-1	-1	-1	61460	61651	683.885	0.01000977	685.485	1.609985	1.599976	61652	61684	685.485	1.609985	685.77	1.894958	0.2849731	59458	59816	667.1	2.205017	670.11	5.215027	3.01001	61685	61685	685.77	1.894958	685.775	1.899963	0.005004883	-1	-1	-1	-1	-1	-1	-1
0001	13	Session_08_01_24__11_06_08_0001	AV_Detection	2	57	27	0	0	0	0	null	False	1.258095	0.5	3	(0.0, 0.0, 0.0)	(0.0, 0.0, 0.0)	2	3	6	a	0.4400635	0	61687	61687	685.785	1.909973	685.795	1.919983	0.01000977	61688	61690	685.795	1.919983	685.82	1.945007	0.02502441	61691	61691	685.82	1.945007	685.825	0.005004883	0.005004883	61895	61895	687.545	1.724976	-1	-1	-1	-1	-1	-1	-1	-1	-1	-1	-1	-1	-1	-1	-1	-1	-1	61692	61842	685.825	0.005004883	687.085	1.264954	1.259949	61843	61893	687.085	1.264954	687.53	1.709961	0.4450073	59458	59816	667.1	2.205017	670.11	5.215027	3.01001	61894	61894	687.53	1.709961	687.545	1.724976	0.01501465	-1	-1	-1	-1	-1	-1	-1
0001	13	Session_08_01_24__11_06_08_0001	AV_Detection	2	58	28	0	0	0	0	null	False	1.290328	0.5	3	(0.0, 0.0, 0.0)	(0.0, 0.0, 0.0)	0	4	6	a	0.2967529	0	61896	61896	687.555	1.734985	687.56	1.73999	0.005004883	61897	61899	687.56	1.73999	687.585	1.764954	0.02496338	61900	61900	687.585	1.764954	687.595	0.01000977	0.01000977	62093	62093	689.205	1.619995	-1	-1	-1	-1	-1	-1	-1	-1	-1	-1	-1	-1	-1	-1	-1	-1	-1	61901	62056	687.595	0.01000977	688.895	1.309998	1.299988	62057	62091	688.895	1.309998	689.195	1.610046	0.3000488	59458	59816	667.1	2.205017	670.11	5.215027	3.01001	62092	62092	689.195	1.610046	689.205	1.619995	0.00994873	-1	-1	-1	-1	-1	-1	-1
0001	13	Session_08_01_24__11_06_08_0001	AV_Detection	2	59	29	0	0	0	0	null	False	1.189796	0.5	3	(0.0, 0.0, 0.0)	(0.0, 0.0, 0.0)	null	4	6	a	0.5801392	0	62094	62094	689.21	1.625	689.22	1.63501	0.01000977	62095	62096	689.22	1.63501	689.235	1.650024	0.01501465	62097	62097	689.235	1.650024	689.245	0.01000977	0.01000977	62337	62337	691.235	2	-1	-1	-1	-1	-1	-1	-1	-1	-1	-1	-1	-1	-1	-1	-1	-1	-1	62098	62241	689.245	0.01000977	690.445	1.210022	1.200012	62242	62302	690.445	1.210022	690.955	1.719971	0.5099487	62303	62335	690.955	1.719971	691.23	1.994995	0.2750244	62336	62336	691.23	1.994995	691.235	2	0.005004883	-1	-1	-1	-1	-1	-1	-1
0001	13	Session_08_01_24__11_06_08_0001	AV_Detection	2	60	30	0	0	0	0	null	False	1.889562	0.5	3	(0.0, 0.0, 0.0)	(0.0, 0.0, 0.0)	null	4	6	a	0.4119263	0	62338	62338	691.245	2.01001	691.255	2.02002	0.01000977	62339	62340	691.255	2.02002	691.27	2.034973	0.01495361	62341	62341	691.27	2.034973	691.28	0.01000977	0.01000977	62621	62621	693.605	2.335022	-1	-1	-1	-1	-1	-1	-1	-1	-1	-1	-1	-1	-1	-1	-1	-1	-1	62342	62569	691.28	0.01000977	693.18	1.910034	1.900024	62570	62619	693.18	1.910034	693.595	2.325012	0.414978	62303	62335	690.955	1.719971	691.23	1.994995	0.2750244	62620	62620	693.595	2.325012	693.605	2.335022	0.01000977	-1	-1	-1	-1	-1	-1	-1
0001	13	Session_08_01_24__11_06_08_0001	AV_Detection	3	61	1	0	0	0	0	null	False	1.596677	0.5	3	(0.0, 0.0, 0.0)	(0.0, 0.0, 0.0)	2	null	6	a	0.2402954	0	63267	63267	699.005	7.735046	699.01	7.740051	0.005004883	63268	63269	699.01	7.740051	699.045	7.775024	0.03497314	63270	63270	699.045	7.775024	699.055	0.01000977	0.01000977	63494	63494	700.91	1.86499	-1	-1	-1	-1	-1	-1	-1	-1	-1	-1	-1	-1	-1	-1	-1	-1	-1	63271	63463	699.055	0.01000977	700.66	1.61499	1.60498	63464	63492	700.66	1.61499	700.905	1.859985	0.2449951	62303	62335	690.955	1.719971	691.23	1.994995	0.2750244	63493	63493	700.905	1.859985	700.91	1.86499	0.005004883	-1	-1	-1	-1	-1	-1	-1
0001	13	Session_08_01_24__11_06_08_0001	AV_Detection	3	62	2	0	0	0	0	null	False	1.781515	0.5	3	(0.0, 0.0, 0.0)	(0.0, 0.0, 0.0)	null	3	6	a	0.4052734	0	63495	63495	700.92	1.875	700.93	1.88501	0.01000977	63496	63497	700.93	1.88501	700.945	1.900024	0.01501465	63498	63498	700.945	1.900024	700.955	0.00994873	0.00994873	63764	63764	703.16	2.214966	-1	-1	-1	-1	-1	-1	-1	-1	-1	-1	-1	-1	-1	-1	-1	-1	-1	63499	63713	700.955	0.00994873	702.745	1.799988	1.790039	63714	63762	702.745	1.799988	703.155	2.209961	0.4099731	62303	62335	690.955	1.719971	691.23	1.994995	0.2750244	63763	63763	703.155	2.209961	703.16	2.214966	0.005004883	-1	-1	-1	-1	-1	-1	-1
0001	13	Session_08_01_24__11_06_08_0001	AV_Detection	3	63	3	0	0	0	0	null	False	1.26013	0.5	3	(0.0, 0.0, 0.0)	(0.0, 0.0, 0.0)	2	3	6	a	0.2820435	0	63765	63765	703.17	2.224976	703.18	2.234985	0.01000977	63766	63768	703.18	2.234985	703.21	2.264954	0.02996826	63769	63769	703.21	2.264954	703.22	0.01000977	0.01000977	63957	63957	704.78	1.570007	-1	-1	-1	-1	-1	-1	-1	-1	-1	-1	-1	-1	-1	-1	-1	-1	-1	63770	63921	703.22	0.01000977	704.485	1.275024	1.265015	63922	63955	704.485	1.275024	704.77	1.559998	0.2849731	62303	62335	690.955	1.719971	691.23	1.994995	0.2750244	63956	63956	704.77	1.559998	704.78	1.570007	0.01000977	-1	-1	-1	-1	-1	-1	-1
0001	13	Session_08_01_24__11_06_08_0001	AV_Detection	3	64	4	0	0	0	0	null	False	1.484818	0.5	3	(0.0, 0.0, 0.0)	(0.0, 0.0, 0.0)	0	5	6	a	0.2220459	0	63958	63958	704.785	1.575012	704.795	1.585022	0.01000977	63959	63961	704.795	1.585022	704.82	1.610046	0.02502441	63962	63962	704.82	1.610046	704.83	0.00994873	0.00994873	64170	64170	706.555	1.734985	-1	-1	-1	-1	-1	-1	-1	-1	-1	-1	-1	-1	-1	-1	-1	-1	-1	63963	64141	704.83	0.00994873	706.32	1.5	1.490051	64142	64168	706.32	1.5	706.545	1.724976	0.2249756	62303	62335	690.955	1.719971	691.23	1.994995	0.2750244	64169	64169	706.545	1.724976	706.555	1.734985	0.01000977	-1	-1	-1	-1	-1	-1	-1
0001	13	Session_08_01_24__11_06_08_0001	AV_Detection	3	65	5	0	0	0	0	null	False	1.168751	0.5	3	(0.0, 0.0, 0.0)	(0.0, 0.0, 0.0)	1	5	6	a	0.3237305	0	64171	64171	706.56	1.73999	706.57	1.75	0.01000977	64172	64174	706.57	1.75	706.605	1.784973	0.03497314	64175	64175	706.605	1.784973	706.61	0.005004883	0.005004883	64357	64357	708.12	1.515015	-1	-1	-1	-1	-1	-1	-1	-1	-1	-1	-1	-1	-1	-1	-1	-1	-1	64176	64316	706.61	0.005004883	707.785	1.179993	1.174988	64317	64355	707.785	1.179993	708.11	1.505005	0.3250122	62303	62335	690.955	1.719971	691.23	1.994995	0.2750244	64356	64356	708.11	1.505005	708.12	1.515015	0.01000977	-1	-1	-1	-1	-1	-1	-1
0001	13	Session_08_01_24__11_06_08_0001	AV_Detection	3	66	6	0	0	0	0	null	False	1.121406	0.5	3	(0.0, 0.0, 0.0)	(0.0, 0.0, 0.0)	null	3	6	a	0.4054565	0	64358	64358	708.13	1.525024	708.135	1.530029	0.005004883	64359	64360	708.135	1.530029	708.16	1.554993	0.02496338	64361	64361	708.16	1.554993	708.17	0.01000977	0.01000977	64546	64546	709.71	1.549988	-1	-1	-1	-1	-1	-1	-1	-1	-1	-1	-1	-1	-1	-1	-1	-1	-1	64362	64495	708.17	0.01000977	709.295	1.13501	1.125	64496	64544	709.295	1.13501	709.705	1.544983	0.4099731	62303	62335	690.955	1.719971	691.23	1.994995	0.2750244	64545	64545	709.705	1.544983	709.71	1.549988	0.005004883	-1	-1	-1	-1	-1	-1	-1
0001	13	Session_08_01_24__11_06_08_0001	AV_Detection	3	67	7	0	0	0	0	null	False	1.788769	0.5	3	(0.0, 0.0, 0.0)	(0.0, 0.0, 0.0)	2	5	6	a	0.2990112	0	64547	64547	709.72	1.559998	709.73	1.570007	0.01000977	64548	64550	709.73	1.570007	709.76	1.600037	0.0300293	64551	64551	709.76	1.600037	709.77	0.00994873	0.00994873	64804	64804	711.87	2.109985	-1	-1	-1	-1	-1	-1	-1	-1	-1	-1	-1	-1	-1	-1	-1	-1	-1	64552	64766	709.77	0.00994873	711.56	1.799988	1.790039	64767	64802	711.56	1.799988	711.86	2.099976	0.2999878	62303	62335	690.955	1.719971	691.23	1.994995	0.2750244	64803	64803	711.86	2.099976	711.87	2.109985	0.01000977	-1	-1	-1	-1	-1	-1	-1
0001	13	Session_08_01_24__11_06_08_0001	AV_Detection	3	68	8	0	0	0	0	null	False	1.871644	0.5	3	(0.0, 0.0, 0.0)	(0.0, 0.0, 0.0)	1	null	6	a	0.2489014	0	64805	64805	711.88	2.119995	711.885	2.125	0.005004883	64806	64807	711.885	2.125	711.905	2.144958	0.0199585	64808	64808	711.905	2.144958	711.91	0.005004883	0.005004883	65063	65063	714.045	2.140015	-1	-1	-1	-1	-1	-1	-1	-1	-1	-1	-1	-1	-1	-1	-1	-1	-1	64809	65033	711.91	0.005004883	713.785	1.880005	1.875	65034	65061	713.785	1.880005	714.035	2.130005	0.25	62303	62335	690.955	1.719971	691.23	1.994995	0.2750244	65062	65062	714.035	2.130005	714.045	2.140015	0.01000977	-1	-1	-1	-1	-1	-1	-1
0001	13	Session_08_01_24__11_06_08_0001	AV_Detection	3	69	9	0	0	0	0	null	False	1.678626	0.5	3	(0.0, 0.0, 0.0)	(0.0, 0.0, 0.0)	0	3	6	a	0.3122559	0	65064	65064	714.055	2.150024	714.06	2.155029	0.005004883	65065	65067	714.06	2.155029	714.085	2.179993	0.02496338	65068	65068	714.085	2.179993	714.095	0.01000977	0.01000977	65310	65310	716.105	2.02002	-1	-1	-1	-1	-1	-1	-1	-1	-1	-1	-1	-1	-1	-1	-1	-1	-1	65069	65270	714.095	0.01000977	715.78	1.695007	1.684998	65271	65308	715.78	1.695007	716.095	2.01001	0.3150024	62303	62335	690.955	1.719971	691.23	1.994995	0.2750244	65309	65309	716.095	2.01001	716.105	2.02002	0.01000977	-1	-1	-1	-1	-1	-1	-1
0001	13	Session_08_01_24__11_06_08_0001	AV_Detection	3	70	10	0	0	0	0	null	False	1.186654	0.5	3	(0.0, 0.0, 0.0)	(0.0, 0.0, 0.0)	0	null	6	a	0.3741455	0	65311	65311	716.11	2.025024	716.12	2.035034	0.01000977	65312	65313	716.12	2.035034	716.135	2.050049	0.01501465	65314	65314	716.135	2.050049	716.145	0.00994873	0.00994873	65503	65503	717.72	1.584961	-1	-1	-1	-1	-1	-1	-1	-1	-1	-1	-1	-1	-1	-1	-1	-1	-1	65315	65457	716.145	0.00994873	717.335	1.199951	1.190002	65458	65501	717.335	1.199951	717.71	1.574951	0.375	62303	62335	690.955	1.719971	691.23	1.994995	0.2750244	65502	65502	717.71	1.574951	717.72	1.584961	0.01000977	-1	-1	-1	-1	-1	-1	-1
0001	13	Session_08_01_24__11_06_08_0001	AV_Detection	3	71	11	0	0	0	0	null	False	1.847382	0.5	3	(0.0, 0.0, 0.0)	(0.0, 0.0, 0.0)	2	4	6	a	0.2473145	0	65504	65504	717.73	1.594971	717.735	1.599976	0.005004883	65505	65507	717.735	1.599976	717.76	1.625	0.02502441	65508	65508	717.76	1.625	717.77	0.00994873	0.00994873	65760	65760	719.88	2.119995	-1	-1	-1	-1	-1	-1	-1	-1	-1	-1	-1	-1	-1	-1	-1	-1	-1	65509	65729	717.77	0.00994873	719.62	1.859985	1.850037	65730	65758	719.62	1.859985	719.87	2.109985	0.25	62303	62335	690.955	1.719971	691.23	1.994995	0.2750244	65759	65759	719.87	2.109985	719.88	2.119995	0.01000977	-1	-1	-1	-1	-1	-1	-1
0001	13	Session_08_01_24__11_06_08_0001	AV_Detection	3	72	12	0	0	0	0	null	False	1.069986	0.5	3	(0.0, 0.0, 0.0)	(0.0, 0.0, 0.0)	null	4	6	a	0.6040039	0	65761	65761	719.895	2.134949	719.905	2.144958	0.01000977	65762	65763	719.905	2.144958	719.92	2.159973	0.01501465	65764	65764	719.92	2.159973	719.93	0.01000977	0.01000977	65995	65995	721.845	1.924988	-1	-1	-1	-1	-1	-1	-1	-1	-1	-1	-1	-1	-1	-1	-1	-1	-1	65765	65893	719.93	0.01000977	721.005	1.085022	1.075012	65894	65954	721.005	1.085022	721.51	1.590027	0.5050049	65955	65993	721.51	1.590027	721.835	1.914978	0.3249512	65994	65994	721.835	1.914978	721.845	1.924988	0.01000977	-1	-1	-1	-1	-1	-1	-1
0001	13	Session_08_01_24__11_06_08_0001	AV_Detection	3	73	13	0	0	0	0	null	False	1.307645	0.5	3	(0.0, 0.0, 0.0)	(0.0, 0.0, 0.0)	null	5	6	a	0.3657227	0	65996	65996	721.855	1.934998	721.86	1.940002	0.005004883	65997	65998	721.86	1.940002	721.88	1.960022	0.02001953	65999	65999	721.88	1.960022	721.895	0.01495361	0.01495361	66203	66203	723.585	1.704956	-1	-1	-1	-1	-1	-1	-1	-1	-1	-1	-1	-1	-1	-1	-1	-1	-1	66000	66157	721.895	0.01495361	723.21	1.329956	1.315002	66158	66201	723.21	1.329956	723.58	1.699951	0.3699951	65955	65993	721.51	1.590027	721.835	1.914978	0.3249512	66202	66202	723.58	1.699951	723.585	1.704956	0.005004883	-1	-1	-1	-1	-1	-1	-1
0001	13	Session_08_01_24__11_06_08_0001	AV_Detection	3	74	14	0	0	0	0	null	False	1.197747	0.5	3	(0.0, 0.0, 0.0)	(0.0, 0.0, 0.0)	null	3	6	a	0.4659424	0	66204	66204	723.595	1.714966	723.605	1.724976	0.01000977	66205	66206	723.605	1.724976	723.63	1.75	0.02502441	66207	66207	723.63	1.75	723.635	0.005004883	0.005004883	66409	66409	725.31	1.679993	-1	-1	-1	-1	-1	-1	-1	-1	-1	-1	-1	-1	-1	-1	-1	-1	-1	66208	66351	723.635	0.005004883	724.835	1.204956	1.199951	66352	66407	724.835	1.204956	725.305	1.674988	0.4700317	65955	65993	721.51	1.590027	721.835	1.914978	0.3249512	66408	66408	725.305	1.674988	725.31	1.679993	0.005004883	-1	-1	-1	-1	-1	-1	-1
0001	13	Session_08_01_24__11_06_08_0001	AV_Detection	3	75	15	0	0	0	0	null	False	1.282068	0.5	3	(0.0, 0.0, 0.0)	(0.0, 0.0, 0.0)	1	3	6	a	0.3308105	0	66410	66410	725.32	1.690002	725.33	1.699951	0.00994873	66411	66413	725.33	1.699951	725.355	1.724976	0.02502441	66414	66414	725.355	1.724976	725.36	0.005004883	0.005004883	66609	66609	726.985	1.630005	-1	-1	-1	-1	-1	-1	-1	-1	-1	-1	-1	-1	-1	-1	-1	-1	-1	66415	66568	725.36	0.005004883	726.645	1.289978	1.284973	66569	66607	726.645	1.289978	726.98	1.625	0.335022	65955	65993	721.51	1.590027	721.835	1.914978	0.3249512	66608	66608	726.98	1.625	726.985	1.630005	0.005004883	-1	-1	-1	-1	-1	-1	-1
0001	13	Session_08_01_24__11_06_08_0001	AV_Detection	3	76	16	0	0	0	0	null	False	1.984629	0.5	3	(0.0, 0.0, 0.0)	(0.0, 0.0, 0.0)	0	null	6	a	0.270874	0	66610	66610	726.995	1.640015	727.005	1.650024	0.01000977	66611	66612	727.005	1.650024	727.03	1.674988	0.02496338	66613	66613	727.03	1.674988	727.035	0.005004883	0.005004883	66886	66886	729.31	2.280029	-1	-1	-1	-1	-1	-1	-1	-1	-1	-1	-1	-1	-1	-1	-1	-1	-1	66614	66852	727.035	0.005004883	729.03	2	1.994995	66853	66884	729.03	2	729.305	2.275024	0.2750244	65955	65993	721.51	1.590027	721.835	1.914978	0.3249512	66885	66885	729.305	2.275024	729.31	2.280029	0.005004883	-1	-1	-1	-1	-1	-1	-1
0001	13	Session_08_01_24__11_06_08_0001	AV_Detection	3	77	17	0	0	0	0	null	False	1.724144	0.5	3	(0.0, 0.0, 0.0)	(0.0, 0.0, 0.0)	null	5	6	a	0.440918	0	66887	66887	729.32	2.290039	729.33	2.299988	0.00994873	66888	66889	729.33	2.299988	729.345	2.315002	0.01501465	66890	66890	729.345	2.315002	729.355	0.01000977	0.01000977	67153	67153	731.535	2.190002	-1	-1	-1	-1	-1	-1	-1	-1	-1	-1	-1	-1	-1	-1	-1	-1	-1	66891	67098	729.355	0.01000977	731.085	1.73999	1.72998	67099	67151	731.085	1.73999	731.53	2.184998	0.4450073	65955	65993	721.51	1.590027	721.835	1.914978	0.3249512	67152	67152	731.53	2.184998	731.535	2.190002	0.005004883	-1	-1	-1	-1	-1	-1	-1
0001	13	Session_08_01_24__11_06_08_0001	AV_Detection	3	78	18	0	0	0	0	null	False	1.567094	0.5	3	(0.0, 0.0, 0.0)	(0.0, 0.0, 0.0)	1	4	6	a	0.232605	0	67154	67154	731.545	2.200012	731.555	2.210022	0.01000977	67155	67157	731.555	2.210022	731.58	2.234985	0.02496338	67158	67158	731.58	2.234985	731.585	0.005004883	0.005004883	67377	67377	733.405	1.825012	-1	-1	-1	-1	-1	-1	-1	-1	-1	-1	-1	-1	-1	-1	-1	-1	-1	67159	67347	731.585	0.005004883	733.16	1.580017	1.575012	67348	67375	733.16	1.580017	733.395	1.815002	0.2349854	65955	65993	721.51	1.590027	721.835	1.914978	0.3249512	67376	67376	733.395	1.815002	733.405	1.825012	0.01000977	-1	-1	-1	-1	-1	-1	-1
0001	13	Session_08_01_24__11_06_08_0001	AV_Detection	3	79	19	0	0	0	0	null	False	1.402281	0.5	3	(0.0, 0.0, 0.0)	(0.0, 0.0, 0.0)	null	5	6	a	0.399292	0	67378	67378	733.41	1.830017	733.42	1.840027	0.01000977	67379	67380	733.42	1.840027	733.445	1.865051	0.02502441	67381	67381	733.445	1.865051	733.455	0.00994873	0.00994873	67600	67600	735.27	1.824951	-1	-1	-1	-1	-1	-1	-1	-1	-1	-1	-1	-1	-1	-1	-1	-1	-1	67382	67550	733.455	0.00994873	734.86	1.414978	1.405029	67551	67598	734.86	1.414978	735.26	1.815002	0.4000244	65955	65993	721.51	1.590027	721.835	1.914978	0.3249512	67599	67599	735.26	1.815002	735.27	1.824951	0.00994873	-1	-1	-1	-1	-1	-1	-1
0001	13	Session_08_01_24__11_06_08_0001	AV_Detection	3	80	20	0	0	0	0	null	False	1.21048	0.5	3	(0.0, 0.0, 0.0)	(0.0, 0.0, 0.0)	2	null	6	a	0.2493286	0	67601	67601	735.28	1.834961	735.285	1.839966	0.005004883	67602	67603	735.285	1.839966	735.31	1.86499	0.02502441	67604	67604	735.31	1.86499	735.32	0.01000977	0.01000977	67782	67782	736.795	1.484985	-1	-1	-1	-1	-1	-1	-1	-1	-1	-1	-1	-1	-1	-1	-1	-1	-1	67605	67750	735.32	0.01000977	736.535	1.224976	1.214966	67751	67780	736.535	1.224976	736.785	1.474976	0.25	65955	65993	721.51	1.590027	721.835	1.914978	0.3249512	67781	67781	736.785	1.474976	736.795	1.484985	0.01000977	-1	-1	-1	-1	-1	-1	-1
0001	13	Session_08_01_24__11_06_08_0001	AV_Detection	3	81	21	0	0	0	0	null	False	1.400473	0.5	3	(0.0, 0.0, 0.0)	(0.0, 0.0, 0.0)	0	null	6	a	0.2210693	0	67783	67783	736.805	1.494995	736.81	1.5	0.005004883	67784	67785	736.81	1.5	736.835	1.524963	0.02496338	67786	67786	736.835	1.524963	736.845	0.01000977	0.01000977	67984	67984	738.485	1.650024	-1	-1	-1	-1	-1	-1	-1	-1	-1	-1	-1	-1	-1	-1	-1	-1	-1	67787	67955	736.845	0.01000977	738.255	1.420044	1.410034	67956	67982	738.255	1.420044	738.48	1.64502	0.2249756	65955	65993	721.51	1.590027	721.835	1.914978	0.3249512	67983	67983	738.48	1.64502	738.485	1.650024	0.005004883	-1	-1	-1	-1	-1	-1	-1
0001	13	Session_08_01_24__11_06_08_0001	AV_Detection	3	82	22	0	0	0	0	null	False	1.672317	0.5	3	(0.0, 0.0, 0.0)	(0.0, 0.0, 0.0)	1	null	6	a	0.2410889	0	67985	67985	738.495	1.660034	738.505	1.670044	0.01000977	67986	67987	738.505	1.670044	738.53	1.695007	0.02496338	67988	67988	738.53	1.695007	738.535	0.005004883	0.005004883	68218	68218	740.46	1.929993	-1	-1	-1	-1	-1	-1	-1	-1	-1	-1	-1	-1	-1	-1	-1	-1	-1	67989	68188	738.535	0.005004883	740.21	1.679993	1.674988	68189	68216	740.21	1.679993	740.455	1.924988	0.2449951	65955	65993	721.51	1.590027	721.835	1.914978	0.3249512	68217	68217	740.455	1.924988	740.46	1.929993	0.005004883	-1	-1	-1	-1	-1	-1	-1
0001	13	Session_08_01_24__11_06_08_0001	AV_Detection	3	83	23	0	0	0	0	null	False	1.494451	0.5	3	(0.0, 0.0, 0.0)	(0.0, 0.0, 0.0)	2	4	6	a	0.2310791	0	68219	68219	740.47	1.940002	740.48	1.950012	0.01000977	68220	68222	740.48	1.950012	740.51	1.980042	0.0300293	68223	68223	740.51	1.980042	740.52	0.00994873	0.00994873	68432	68432	742.26	1.75	-1	-1	-1	-1	-1	-1	-1	-1	-1	-1	-1	-1	-1	-1	-1	-1	-1	68224	68403	740.52	0.00994873	742.02	1.509949	1.5	68404	68430	742.02	1.509949	742.255	1.744995	0.2350464	65955	65993	721.51	1.590027	721.835	1.914978	0.3249512	68431	68431	742.255	1.744995	742.26	1.75	0.005004883	-1	-1	-1	-1	-1	-1	-1
0001	13	Session_08_01_24__11_06_08_0001	AV_Detection	3	84	24	0	0	0	0	null	False	1.720394	0.5	3	(0.0, 0.0, 0.0)	(0.0, 0.0, 0.0)	2	null	6	a	0.2827759	0	68433	68433	742.27	1.759949	742.28	1.769958	0.01000977	68434	68435	742.28	1.769958	742.305	1.794983	0.02502441	68436	68436	742.305	1.794983	742.31	0.005004883	0.005004883	68679	68679	744.33	2.024963	-1	-1	-1	-1	-1	-1	-1	-1	-1	-1	-1	-1	-1	-1	-1	-1	-1	68437	68643	742.31	0.005004883	744.035	1.72998	1.724976	68644	68677	744.035	1.72998	744.32	2.015015	0.2850342	65955	65993	721.51	1.590027	721.835	1.914978	0.3249512	68678	68678	744.32	2.015015	744.33	2.024963	0.00994873	-1	-1	-1	-1	-1	-1	-1
0001	13	Session_08_01_24__11_06_08_0001	AV_Detection	3	85	25	0	0	0	0	null	False	1.944511	0.5	3	(0.0, 0.0, 0.0)	(0.0, 0.0, 0.0)	null	5	6	a	0.489502	0	68680	68680	744.335	2.029968	744.345	2.039978	0.01000977	68681	68682	744.345	2.039978	744.36	2.054993	0.01501465	68683	68683	744.36	2.054993	744.37	0.01000977	0.01000977	68976	68976	746.82	2.460022	-1	-1	-1	-1	-1	-1	-1	-1	-1	-1	-1	-1	-1	-1	-1	-1	-1	68684	68915	744.37	0.01000977	746.32	1.960022	1.950012	68916	68974	746.32	1.960022	746.81	2.450012	0.4899902	65955	65993	721.51	1.590027	721.835	1.914978	0.3249512	68975	68975	746.81	2.450012	746.82	2.460022	0.01000977	-1	-1	-1	-1	-1	-1	-1
0001	13	Session_08_01_24__11_06_08_0001	AV_Detection	3	86	26	0	0	0	0	null	False	1.748679	0.5	3	(0.0, 0.0, 0.0)	(0.0, 0.0, 0.0)	null	4	6	a	0.3963623	0	68977	68977	746.83	2.469971	746.835	2.474976	0.005004883	68978	68979	746.835	2.474976	746.86	2.5	0.02502441	68980	68980	746.86	2.5	746.87	0.01000977	0.01000977	69241	69241	749.035	2.174988	-1	-1	-1	-1	-1	-1	-1	-1	-1	-1	-1	-1	-1	-1	-1	-1	-1	68981	69191	746.87	0.01000977	748.63	1.77002	1.76001	69192	69239	748.63	1.77002	749.03	2.169983	0.3999634	65955	65993	721.51	1.590027	721.835	1.914978	0.3249512	69240	69240	749.03	2.169983	749.035	2.174988	0.005004883	-1	-1	-1	-1	-1	-1	-1
0001	13	Session_08_01_24__11_06_08_0001	AV_Detection	3	87	27	0	0	0	0	null	False	1.380565	0.5	3	(0.0, 0.0, 0.0)	(0.0, 0.0, 0.0)	0	4	6	a	0.281311	0	69242	69242	749.045	2.184998	749.055	2.195007	0.01000977	69243	69245	749.055	2.195007	749.08	2.219971	0.02496338	69246	69246	749.08	2.219971	749.085	0.005004883	0.005004883	69446	69446	750.76	1.680054	-1	-1	-1	-1	-1	-1	-1	-1	-1	-1	-1	-1	-1	-1	-1	-1	-1	69247	69411	749.085	0.005004883	750.47	1.390015	1.38501	69412	69444	750.47	1.390015	750.755	1.675049	0.2850342	65955	65993	721.51	1.590027	721.835	1.914978	0.3249512	69445	69445	750.755	1.675049	750.76	1.680054	0.005004883	-1	-1	-1	-1	-1	-1	-1
0001	13	Session_08_01_24__11_06_08_0001	AV_Detection	3	88	28	0	0	0	0	null	False	1.140301	0.5	3	(0.0, 0.0, 0.0)	(0.0, 0.0, 0.0)	1	null	6	a	0.2796021	0	69447	69447	750.77	1.690002	750.78	1.700012	0.01000977	69448	69449	750.78	1.700012	750.805	1.725037	0.02502441	69450	69450	750.805	1.725037	750.81	0.005004883	0.005004883	69623	69623	752.245	1.440002	-1	-1	-1	-1	-1	-1	-1	-1	-1	-1	-1	-1	-1	-1	-1	-1	-1	69451	69587	750.81	0.005004883	751.955	1.149963	1.144958	69588	69621	751.955	1.149963	752.235	1.429993	0.2800293	65955	65993	721.51	1.590027	721.835	1.914978	0.3249512	69622	69622	752.235	1.429993	752.245	1.440002	0.01000977	-1	-1	-1	-1	-1	-1	-1
0001	13	Session_08_01_24__11_06_08_0001	AV_Detection	3	89	29	0	0	0	0	null	False	1.867677	0.5	3	(0.0, 0.0, 0.0)	(0.0, 0.0, 0.0)	null	4	6	a	0.458252	0	69624	69624	752.255	1.450012	752.26	1.455017	0.005004883	69625	69626	752.26	1.455017	752.28	1.474976	0.0199585	69627	69627	752.28	1.474976	752.285	0.005004883	0.005004883	69909	69909	754.63	2.350037	-1	-1	-1	-1	-1	-1	-1	-1	-1	-1	-1	-1	-1	-1	-1	-1	-1	69628	69852	752.285	0.005004883	754.16	1.880005	1.875	69853	69907	754.16	1.880005	754.62	2.340027	0.460022	65955	65993	721.51	1.590027	721.835	1.914978	0.3249512	69908	69908	754.62	2.340027	754.63	2.350037	0.01000977	-1	-1	-1	-1	-1	-1	-1
0001	13	Session_08_01_24__11_06_08_0001	AV_Detection	3	90	30	0	0	0	0	null	False	1.717917	0.5	3	(0.0, 0.0, 0.0)	(0.0, 0.0, 0.0)	0	null	6	a	0.2731323	0	69910	69910	754.635	2.355042	754.645	2.36499	0.00994873	69911	69912	754.645	2.36499	754.66	2.380005	0.01501465	69913	69913	754.66	2.380005	754.67	0.01000977	0.01000977	70155	70155	756.68	2.02002	-1	-1	-1	-1	-1	-1	-1	-1	-1	-1	-1	-1	-1	-1	-1	-1	-1	69914	70120	754.67	0.01000977	756.395	1.734985	1.724976	70121	70153	756.395	1.734985	756.67	2.01001	0.2750244	65955	65993	721.51	1.590027	721.835	1.914978	0.3249512	70154	70154	756.67	2.01001	756.68	2.02002	0.01000977	-1	-1	-1	-1	-1	-1	-1
0001	13	Session_08_01_24__11_06_08_0001	AV_Detection	4	91	1	0	0	0	0	null	False	1.699322	0.5	3	(0.0, 0.0, 0.0)	(0.0, 0.0, 0.0)	2	3	6	a	0.2498779	0	70792	70792	762.02	7.359985	762.03	7.369995	0.01000977	70793	70795	762.03	7.369995	762.07	7.410034	0.04003906	70796	70796	762.07	7.410034	762.08	0.00994873	0.00994873	71033	71033	764.045	1.974976	-1	-1	-1	-1	-1	-1	-1	-1	-1	-1	-1	-1	-1	-1	-1	-1	-1	70797	71001	762.08	0.00994873	763.785	1.714966	1.705017	71002	71031	763.785	1.714966	764.035	1.964966	0.25	65955	65993	721.51	1.590027	721.835	1.914978	0.3249512	71032	71032	764.035	1.964966	764.045	1.974976	0.01000977	-1	-1	-1	-1	-1	-1	-1
0001	13	Session_08_01_24__11_06_08_0001	AV_Detection	4	92	2	0	0	0	0	null	False	1.471147	0.5	3	(0.0, 0.0, 0.0)	(0.0, 0.0, 0.0)	1	null	6	a	0.2332153	0	71034	71034	764.055	1.984985	764.06	1.98999	0.005004883	71035	71036	764.06	1.98999	764.08	2.009949	0.0199585	71037	71037	764.08	2.009949	764.085	0.005004883	0.005004883	71243	71243	765.805	1.725037	-1	-1	-1	-1	-1	-1	-1	-1	-1	-1	-1	-1	-1	-1	-1	-1	-1	71038	71214	764.085	0.005004883	765.56	1.480042	1.475037	71215	71241	765.56	1.480042	765.795	1.715027	0.2349854	65955	65993	721.51	1.590027	721.835	1.914978	0.3249512	71242	71242	765.795	1.715027	765.805	1.725037	0.01000977	-1	-1	-1	-1	-1	-1	-1
0001	13	Session_08_01_24__11_06_08_0001	AV_Detection	4	93	3	0	0	0	0	null	False	1.883447	0.5	3	(0.0, 0.0, 0.0)	(0.0, 0.0, 0.0)	2	null	6	a	0.2715454	0	71244	71244	765.82	1.740051	765.83	1.75	0.00994873	71245	71246	765.83	1.75	765.855	1.775024	0.02502441	71247	71247	765.855	1.775024	765.86	0.005004883	0.005004883	71508	71508	768.035	2.179993	-1	-1	-1	-1	-1	-1	-1	-1	-1	-1	-1	-1	-1	-1	-1	-1	-1	71248	71473	765.86	0.005004883	767.755	1.900024	1.89502	71474	71506	767.755	1.900024	768.03	2.174988	0.2749634	65955	65993	721.51	1.590027	721.835	1.914978	0.3249512	71507	71507	768.03	2.174988	768.035	2.179993	0.005004883	-1	-1	-1	-1	-1	-1	-1
0001	13	Session_08_01_24__11_06_08_0001	AV_Detection	4	94	4	0	0	0	0	null	False	1.026519	0.5	3	(0.0, 0.0, 0.0)	(0.0, 0.0, 0.0)	null	4	6	a	0.5982666	0	71509	71509	768.045	2.190002	768.055	2.200012	0.01000977	71510	71511	768.055	2.200012	768.08	2.224976	0.02496338	71512	71512	768.08	2.224976	768.085	0.005004883	0.005004883	71743	71743	770.005	1.925049	-1	-1	-1	-1	-1	-1	-1	-1	-1	-1	-1	-1	-1	-1	-1	-1	-1	71513	71636	768.085	0.005004883	769.12	1.040039	1.035034	71637	71697	769.12	1.040039	769.63	1.550049	0.5100098	71698	71741	769.63	1.550049	769.995	1.915039	0.3649902	71742	71742	769.995	1.915039	770.005	1.925049	0.01000977	-1	-1	-1	-1	-1	-1	-1
0001	13	Session_08_01_24__11_06_08_0001	AV_Detection	4	95	5	0	0	0	0	null	False	1.541902	0.5	3	(0.0, 0.0, 0.0)	(0.0, 0.0, 0.0)	2	5	6	a	0.2383423	0	71744	71744	770.015	1.934998	770.02	1.940002	0.005004883	71745	71747	770.02	1.940002	770.045	1.965027	0.02502441	71748	71748	770.045	1.965027	770.055	0.01000977	0.01000977	71964	71964	771.855	1.809998	-1	-1	-1	-1	-1	-1	-1	-1	-1	-1	-1	-1	-1	-1	-1	-1	-1	71749	71934	770.055	0.01000977	771.605	1.559998	1.549988	71935	71962	771.605	1.559998	771.845	1.799988	0.2399902	71698	71741	769.63	1.550049	769.995	1.915039	0.3649902	71963	71963	771.845	1.799988	771.855	1.809998	0.01000977	-1	-1	-1	-1	-1	-1	-1
0001	13	Session_08_01_24__11_06_08_0001	AV_Detection	4	96	6	0	0	0	0	null	False	1.822817	0.5	3	(0.0, 0.0, 0.0)	(0.0, 0.0, 0.0)	1	5	6	a	0.2366943	0	71965	71965	771.86	1.815002	771.87	1.825012	0.01000977	71966	71968	771.87	1.825012	771.905	1.859985	0.03497314	71969	71969	771.905	1.859985	771.91	0.005004883	0.005004883	72219	72219	773.99	2.085022	-1	-1	-1	-1	-1	-1	-1	-1	-1	-1	-1	-1	-1	-1	-1	-1	-1	71970	72188	771.91	0.005004883	773.74	1.835022	1.830017	72189	72217	773.74	1.835022	773.98	2.075012	0.2399902	71698	71741	769.63	1.550049	769.995	1.915039	0.3649902	72218	72218	773.98	2.075012	773.99	2.085022	0.01000977	-1	-1	-1	-1	-1	-1	-1
0001	13	Session_08_01_24__11_06_08_0001	AV_Detection	4	97	7	0	0	0	0	null	False	1.25685	0.5	3	(0.0, 0.0, 0.0)	(0.0, 0.0, 0.0)	null	4	6	a	0.4133911	0	72220	72220	773.995	2.090027	774.005	2.100037	0.01000977	72221	72222	774.005	2.100037	774.03	2.125	0.02496338	72223	72223	774.03	2.125	774.04	0.01000977	0.01000977	72427	72427	775.73	1.700012	-1	-1	-1	-1	-1	-1	-1	-1	-1	-1	-1	-1	-1	-1	-1	-1	-1	72224	72375	774.04	0.01000977	775.305	1.275024	1.265015	72376	72425	775.305	1.275024	775.72	1.690002	0.414978	71698	71741	769.63	1.550049	769.995	1.915039	0.3649902	72426	72426	775.72	1.690002	775.73	1.700012	0.01000977	-1	-1	-1	-1	-1	-1	-1
0001	13	Session_08_01_24__11_06_08_0001	AV_Detection	4	98	8	0	0	0	0	null	False	1.293351	0.5	3	(0.0, 0.0, 0.0)	(0.0, 0.0, 0.0)	2	null	6	a	0.2634888	0	72428	72428	775.74	1.710022	775.745	1.715027	0.005004883	72429	72430	775.745	1.715027	775.77	1.73999	0.02496338	72431	72431	775.77	1.73999	775.78	0.01000977	0.01000977	72620	72620	777.355	1.585022	-1	-1	-1	-1	-1	-1	-1	-1	-1	-1	-1	-1	-1	-1	-1	-1	-1	72432	72587	775.78	0.01000977	777.08	1.309998	1.299988	72588	72618	777.08	1.309998	777.345	1.575012	0.2650146	71698	71741	769.63	1.550049	769.995	1.915039	0.3649902	72619	72619	777.345	1.575012	777.355	1.585022	0.01000977	-1	-1	-1	-1	-1	-1	-1
0001	13	Session_08_01_24__11_06_08_0001	AV_Detection	4	99	9	0	0	0	0	null	False	1.434674	0.5	3	(0.0, 0.0, 0.0)	(0.0, 0.0, 0.0)	2	4	6	a	0.2468262	0	72621	72621	777.365	1.595032	777.37	1.600037	0.005004883	72622	72624	777.37	1.600037	777.405	1.63501	0.03497314	72625	72625	777.405	1.63501	777.415	0.01000977	0.01000977	72830	72830	779.115	1.710022	-1	-1	-1	-1	-1	-1	-1	-1	-1	-1	-1	-1	-1	-1	-1	-1	-1	72626	72798	777.415	0.01000977	778.855	1.450012	1.440002	72799	72828	778.855	1.450012	779.105	1.700012	0.25	71698	71741	769.63	1.550049	769.995	1.915039	0.3649902	72829	72829	779.105	1.700012	779.115	1.710022	0.01000977	-1	-1	-1	-1	-1	-1	-1
0001	13	Session_08_01_24__11_06_08_0001	AV_Detection	4	100	10	0	0	0	0	null	False	1.339247	0.5	3	(0.0, 0.0, 0.0)	(0.0, 0.0, 0.0)	null	3	6	a	0.5218506	0	72831	72831	779.12	1.715027	779.13	1.725037	0.01000977	72832	72833	779.13	1.725037	779.145	1.73999	0.01495361	72834	72834	779.145	1.73999	779.155	0.01000977	0.01000977	73086	73086	781.265	2.119995	-1	-1	-1	-1	-1	-1	-1	-1	-1	-1	-1	-1	-1	-1	-1	-1	-1	72835	72994	779.155	0.01000977	780.505	1.360046	1.350037	72995	73055	780.505	1.360046	781.015	1.869995	0.5099487	73056	73084	781.015	1.869995	781.255	2.110046	0.2400513	73085	73085	781.255	2.110046	781.265	2.119995	0.00994873	-1	-1	-1	-1	-1	-1	-1
0001	13	Session_08_01_24__11_06_08_0001	AV_Detection	4	101	11	0	0	0	0	null	False	1.201738	0.5	3	(0.0, 0.0, 0.0)	(0.0, 0.0, 0.0)	0	null	6	a	0.2702637	0	73087	73087	781.27	2.125	781.28	2.13501	0.01000977	73088	73089	781.28	2.13501	781.295	2.150024	0.01501465	73090	73090	781.295	2.150024	781.305	0.01000977	0.01000977	73268	73268	782.795	1.5	-1	-1	-1	-1	-1	-1	-1	-1	-1	-1	-1	-1	-1	-1	-1	-1	-1	73091	73233	781.305	0.01000977	782.515	1.219971	1.209961	73234	73266	782.515	1.219971	782.79	1.494995	0.2750244	73056	73084	781.015	1.869995	781.255	2.110046	0.2400513	73267	73267	782.79	1.494995	782.795	1.5	0.005004883	-1	-1	-1	-1	-1	-1	-1
0001	13	Session_08_01_24__11_06_08_0001	AV_Detection	4	102	12	0	0	0	0	null	False	1.722773	0.5	3	(0.0, 0.0, 0.0)	(0.0, 0.0, 0.0)	null	5	6	a	0.5485229	0	73269	73269	782.805	1.51001	782.815	1.52002	0.01000977	73270	73271	782.815	1.52002	782.84	1.544983	0.02496338	73272	73272	782.84	1.544983	782.845	0.005004883	0.005004883	73573	73573	785.345	2.505005	-1	-1	-1	-1	-1	-1	-1	-1	-1	-1	-1	-1	-1	-1	-1	-1	-1	73273	73479	782.845	0.005004883	784.57	1.730042	1.725037	73480	73540	784.57	1.730042	785.08	2.23999	0.5099487	73541	73571	785.08	2.23999	785.34	2.5	0.2600098	73572	73572	785.34	2.5	785.345	2.505005	0.005004883	-1	-1	-1	-1	-1	-1	-1
0001	13	Session_08_01_24__11_06_08_0001	AV_Detection	4	103	13	0	0	0	0	null	False	1.707955	0.5	3	(0.0, 0.0, 0.0)	(0.0, 0.0, 0.0)	0	null	6	a	0.2636108	0	73574	73574	785.355	2.515015	785.365	2.525024	0.01000977	73575	73576	785.365	2.525024	785.38	2.540039	0.01501465	73577	73577	785.38	2.540039	785.39	0.00994873	0.00994873	73815	73815	787.38	2	-1	-1	-1	-1	-1	-1	-1	-1	-1	-1	-1	-1	-1	-1	-1	-1	-1	73578	73783	785.39	0.00994873	787.105	1.724976	1.715027	73784	73813	787.105	1.724976	787.37	1.98999	0.2650146	73541	73571	785.08	2.23999	785.34	2.5	0.2600098	73814	73814	787.37	1.98999	787.38	2	0.01000977	-1	-1	-1	-1	-1	-1	-1
0001	13	Session_08_01_24__11_06_08_0001	AV_Detection	4	104	14	0	0	0	0	null	False	1.612425	0.5	3	(0.0, 0.0, 0.0)	(0.0, 0.0, 0.0)	0	4	6	a	0.2952881	0	73816	73816	787.39	2.009949	787.395	2.014954	0.005004883	73817	73819	787.395	2.014954	787.43	2.049988	0.03503418	73820	73820	787.43	2.049988	787.44	0.01000977	0.01000977	74052	74052	789.37	1.940002	-1	-1	-1	-1	-1	-1	-1	-1	-1	-1	-1	-1	-1	-1	-1	-1	-1	73821	74015	787.44	0.01000977	789.065	1.63501	1.625	74016	74050	789.065	1.63501	789.365	1.934998	0.2999878	73541	73571	785.08	2.23999	785.34	2.5	0.2600098	74051	74051	789.365	1.934998	789.37	1.940002	0.005004883	-1	-1	-1	-1	-1	-1	-1
0001	13	Session_08_01_24__11_06_08_0001	AV_Detection	4	105	15	0	0	0	0	null	False	1.138782	0.5	3	(0.0, 0.0, 0.0)	(0.0, 0.0, 0.0)	1	null	6	a	0.3536987	0	74053	74053	789.38	1.950012	789.39	1.959961	0.00994873	74054	74055	789.39	1.959961	789.415	1.984985	0.02502441	74056	74056	789.415	1.984985	789.42	0.005004883	0.005004883	74236	74236	790.93	1.515015	-1	-1	-1	-1	-1	-1	-1	-1	-1	-1	-1	-1	-1	-1	-1	-1	-1	74057	74193	789.42	0.005004883	790.565	1.150024	1.14502	74194	74234	790.565	1.150024	790.92	1.505005	0.3549805	73541	73571	785.08	2.23999	785.34	2.5	0.2600098	74235	74235	790.92	1.505005	790.93	1.515015	0.01000977	-1	-1	-1	-1	-1	-1	-1
0001	13	Session_08_01_24__11_06_08_0001	AV_Detection	4	106	16	0	0	0	0	null	False	1.580429	0.5	3	(0.0, 0.0, 0.0)	(0.0, 0.0, 0.0)	null	3	6	a	0.3887329	0	74237	74237	790.94	1.525024	790.945	1.530029	0.005004883	74238	74239	790.945	1.530029	790.965	1.549988	0.0199585	74240	74240	790.965	1.549988	790.97	0.005004883	0.005004883	74476	74476	792.955	1.98999	-1	-1	-1	-1	-1	-1	-1	-1	-1	-1	-1	-1	-1	-1	-1	-1	-1	74241	74427	790.97	0.005004883	792.555	1.590027	1.585022	74428	74474	792.555	1.590027	792.945	1.980042	0.3900146	73541	73571	785.08	2.23999	785.34	2.5	0.2600098	74475	74475	792.945	1.980042	792.955	1.98999	0.00994873	-1	-1	-1	-1	-1	-1	-1
0001	13	Session_08_01_24__11_06_08_0001	AV_Detection	4	107	17	0	0	0	0	null	False	1.343786	0.5	3	(0.0, 0.0, 0.0)	(0.0, 0.0, 0.0)	1	null	6	a	0.2821045	0	74477	74477	792.965	2	792.97	2.005005	0.005004883	74478	74479	792.97	2.005005	792.99	2.025024	0.02001953	74480	74480	792.99	2.025024	792.995	0.005004883	0.005004883	74676	74676	794.64	1.649963	-1	-1	-1	-1	-1	-1	-1	-1	-1	-1	-1	-1	-1	-1	-1	-1	-1	74481	74641	792.995	0.005004883	794.345	1.35498	1.349976	74642	74674	794.345	1.35498	794.63	1.640015	0.2850342	73541	73571	785.08	2.23999	785.34	2.5	0.2600098	74675	74675	794.63	1.640015	794.64	1.649963	0.00994873	-1	-1	-1	-1	-1	-1	-1
0001	13	Session_08_01_24__11_06_08_0001	AV_Detection	4	108	18	0	0	0	0	null	False	1.132167	0.5	3	(0.0, 0.0, 0.0)	(0.0, 0.0, 0.0)	2	null	6	a	null	0	74677	74677	794.645	1.654968	794.655	1.664978	0.01000977	74678	74679	794.655	1.664978	794.67	1.679993	0.01501465	74680	74680	794.67	1.679993	794.69	0.02001953	0.02001953	75239	75239	799.355	4.684998	-1	-1	-1	-1	-1	-1	-1	-1	-1	-1	-1	-1	-1	-1	-1	-1	-1	74681	74817	794.69	0.02001953	795.83	1.159973	1.139954	74818	74876	795.83	1.159973	796.34	1.669983	0.5100098	74877	75237	796.34	1.669983	799.345	4.674988	3.005005	75238	75238	799.345	4.674988	799.355	4.684998	0.01000977	-1	-1	-1	-1	-1	-1	-1
0001	13	Session_08_01_24__11_06_08_0001	AV_Detection	4	109	19	0	0	0	0	null	False	1.946728	0.5	3	(0.0, 0.0, 0.0)	(0.0, 0.0, 0.0)	0	5	6	a	0.2389526	0	75240	75240	799.365	4.695007	799.37	4.700012	0.005004883	75241	75243	799.37	4.700012	799.395	4.724976	0.02496338	75244	75244	799.395	4.724976	799.405	0.01000977	0.01000977	75509	75509	801.605	2.210022	-1	-1	-1	-1	-1	-1	-1	-1	-1	-1	-1	-1	-1	-1	-1	-1	-1	75245	75478	799.405	0.01000977	801.355	1.960022	1.950012	75479	75507	801.355	1.960022	801.595	2.200012	0.2399902	74877	75237	796.34	1.669983	799.345	4.674988	3.005005	75508	75508	801.595	2.200012	801.605	2.210022	0.01000977	-1	-1	-1	-1	-1	-1	-1
0001	13	Session_08_01_24__11_06_08_0001	AV_Detection	4	110	20	0	0	0	0	null	False	1.561576	0.5	3	(0.0, 0.0, 0.0)	(0.0, 0.0, 0.0)	2	5	6	a	0.3308716	0	75510	75510	801.615	2.220032	801.62	2.225037	0.005004883	75511	75513	801.62	2.225037	801.655	2.26001	0.03497314	75514	75514	801.655	2.26001	801.665	0.01000977	0.01000977	75742	75742	803.57	1.915039	-1	-1	-1	-1	-1	-1	-1	-1	-1	-1	-1	-1	-1	-1	-1	-1	-1	75515	75701	801.665	0.01000977	803.23	1.575012	1.565002	75702	75740	803.23	1.575012	803.565	1.910034	0.335022	74877	75237	796.34	1.669983	799.345	4.674988	3.005005	75741	75741	803.565	1.910034	803.57	1.915039	0.005004883	-1	-1	-1	-1	-1	-1	-1
0001	13	Session_08_01_24__11_06_08_0001	AV_Detection	4	111	21	0	0	0	0	null	False	1.857215	0.5	3	(0.0, 0.0, 0.0)	(0.0, 0.0, 0.0)	null	4	6	a	null	0	75743	75743	803.58	1.924988	803.59	1.934998	0.01000977	75744	75745	803.59	1.934998	803.605	1.950012	0.01501465	75746	75746	803.605	1.950012	803.615	0.01000977	0.01000977	75814	75814	804.17	0.5650024	-1	-1	-1	-1	-1	-1	-1	-1	-1	-1	-1	-1	-1	-1	-1	-1	-1	75747	75812	803.615	0.01000977	804.165	0.5599976	0.5499878	75702	75740	803.23	1.575012	803.565	1.910034	0.335022	74877	75237	796.34	1.669983	799.345	4.674988	3.005005	75813	75813	804.165	0.5599976	804.17	0.5650024	0.005004883	-1	-1	-1	-1	-1	-1	-1
0001	13	Session_08_01_24__11_06_08_0001	AV_Detection	4	112	22	0	0	0	0	null	False	1.02951	0.5	3	(0.0, 0.0, 0.0)	(0.0, 0.0, 0.0)	null	5	6	a	0.4226074	0	75815	75815	804.18	0.5750122	804.19	0.585022	0.01000977	75816	75817	804.19	0.585022	804.205	0.5999756	0.01495361	75818	75818	804.205	0.5999756	804.215	0.01000977	0.01000977	75996	75996	805.69	1.485046	-1	-1	-1	-1	-1	-1	-1	-1	-1	-1	-1	-1	-1	-1	-1	-1	-1	75819	75943	804.215	0.01000977	805.255	1.050049	1.040039	75944	75994	805.255	1.050049	805.68	1.475037	0.4249878	74877	75237	796.34	1.669983	799.345	4.674988	3.005005	75995	75995	805.68	1.475037	805.69	1.485046	0.01000977	-1	-1	-1	-1	-1	-1	-1
0001	13	Session_08_01_24__11_06_08_0001	AV_Detection	4	113	23	0	0	0	0	null	False	1.205231	0.5	3	(0.0, 0.0, 0.0)	(0.0, 0.0, 0.0)	1	3	6	a	0.3390503	0	75997	75997	805.695	1.490051	805.705	1.5	0.00994873	75998	76000	805.705	1.5	805.73	1.525024	0.02502441	76001	76001	805.73	1.525024	805.74	0.01000977	0.01000977	76190	76190	807.305	1.575012	-1	-1	-1	-1	-1	-1	-1	-1	-1	-1	-1	-1	-1	-1	-1	-1	-1	76002	76147	805.74	0.01000977	806.955	1.224976	1.214966	76148	76188	806.955	1.224976	807.295	1.565002	0.3400269	74877	75237	796.34	1.669983	799.345	4.674988	3.005005	76189	76189	807.295	1.565002	807.305	1.575012	0.01000977	-1	-1	-1	-1	-1	-1	-1
0001	13	Session_08_01_24__11_06_08_0001	AV_Detection	4	114	24	0	0	0	0	null	False	1.783616	0.5	3	(0.0, 0.0, 0.0)	(0.0, 0.0, 0.0)	1	4	6	a	0.3390503	0	76191	76191	807.315	1.585022	807.32	1.590027	0.005004883	76192	76194	807.32	1.590027	807.355	1.625	0.03497314	76195	76195	807.355	1.625	807.365	0.01000977	0.01000977	76453	76453	809.505	2.150024	-1	-1	-1	-1	-1	-1	-1	-1	-1	-1	-1	-1	-1	-1	-1	-1	-1	76196	76410	807.365	0.01000977	809.155	1.799988	1.789978	76411	76451	809.155	1.799988	809.495	2.140015	0.3400269	74877	75237	796.34	1.669983	799.345	4.674988	3.005005	76452	76452	809.495	2.140015	809.505	2.150024	0.01000977	-1	-1	-1	-1	-1	-1	-1
0001	13	Session_08_01_24__11_06_08_0001	AV_Detection	4	115	25	0	0	0	0	null	False	1.133142	0.5	3	(0.0, 0.0, 0.0)	(0.0, 0.0, 0.0)	null	3	6	a	0.4657593	0	76454	76454	809.515	2.159973	809.52	2.164978	0.005004883	76455	76456	809.52	2.164978	809.545	2.190002	0.02502441	76457	76457	809.545	2.190002	809.555	0.01000977	0.01000977	76652	76652	811.17	1.625	-1	-1	-1	-1	-1	-1	-1	-1	-1	-1	-1	-1	-1	-1	-1	-1	-1	76458	76594	809.555	0.01000977	810.695	1.150024	1.140015	76595	76650	810.695	1.150024	811.165	1.619995	0.4699707	74877	75237	796.34	1.669983	799.345	4.674988	3.005005	76651	76651	811.165	1.619995	811.17	1.625	0.005004883	-1	-1	-1	-1	-1	-1	-1
0001	13	Session_08_01_24__11_06_08_0001	AV_Detection	4	116	26	0	0	0	0	null	False	1.991637	0.5	3	(0.0, 0.0, 0.0)	(0.0, 0.0, 0.0)	0	null	6	a	0.2158203	0	76653	76653	811.18	1.63501	811.19	1.64502	0.01000977	76654	76655	811.19	1.64502	811.215	1.669983	0.02496338	76656	76656	811.215	1.669983	811.22	0.005004883	0.005004883	76923	76923	813.445	2.230042	-1	-1	-1	-1	-1	-1	-1	-1	-1	-1	-1	-1	-1	-1	-1	-1	-1	76657	76895	811.22	0.005004883	813.22	2.005005	2	76896	76921	813.22	2.005005	813.44	2.225037	0.2200317	74877	75237	796.34	1.669983	799.345	4.674988	3.005005	76922	76922	813.44	2.225037	813.445	2.230042	0.005004883	-1	-1	-1	-1	-1	-1	-1
0001	13	Session_08_01_24__11_06_08_0001	AV_Detection	4	117	27	0	0	0	0	null	False	1.274954	0.5	3	(0.0, 0.0, 0.0)	(0.0, 0.0, 0.0)	null	3	6	a	0.4241943	0	76924	76924	813.455	2.23999	813.465	2.25	0.01000977	76925	76926	813.465	2.25	813.48	2.265015	0.01501465	76927	76927	813.48	2.265015	813.49	0.01000977	0.01000977	77134	77134	815.205	1.724976	-1	-1	-1	-1	-1	-1	-1	-1	-1	-1	-1	-1	-1	-1	-1	-1	-1	76928	77081	813.49	0.01000977	814.77	1.289978	1.279968	77082	77132	814.77	1.289978	815.195	1.715027	0.4250488	74877	75237	796.34	1.669983	799.345	4.674988	3.005005	77133	77133	815.195	1.715027	815.205	1.724976	0.00994873	-1	-1	-1	-1	-1	-1	-1
0001	13	Session_08_01_24__11_06_08_0001	AV_Detection	4	118	28	0	0	0	0	null	False	1.465397	0.5	3	(0.0, 0.0, 0.0)	(0.0, 0.0, 0.0)	null	5	6	a	0.4291992	0	77135	77135	815.215	1.734985	815.22	1.73999	0.005004883	77136	77137	815.22	1.73999	815.24	1.76001	0.02001953	77138	77138	815.24	1.76001	815.245	0.005004883	0.005004883	77368	77368	817.155	1.914978	-1	-1	-1	-1	-1	-1	-1	-1	-1	-1	-1	-1	-1	-1	-1	-1	-1	77139	77314	815.245	0.005004883	816.715	1.474976	1.469971	77315	77366	816.715	1.474976	817.145	1.904968	0.4299927	74877	75237	796.34	1.669983	799.345	4.674988	3.005005	77367	77367	817.145	1.904968	817.155	1.914978	0.01000977	-1	-1	-1	-1	-1	-1	-1
0001	13	Session_08_01_24__11_06_08_0001	AV_Detection	4	119	29	0	0	0	0	null	False	1.383951	0.5	3	(0.0, 0.0, 0.0)	(0.0, 0.0, 0.0)	1	null	6	a	0.2908936	0	77369	77369	817.165	1.924988	817.17	1.929993	0.005004883	77370	77371	817.17	1.929993	817.19	1.950012	0.02001953	77372	77372	817.19	1.950012	817.205	0.01495361	0.01495361	77576	77576	818.895	1.704956	-1	-1	-1	-1	-1	-1	-1	-1	-1	-1	-1	-1	-1	-1	-1	-1	-1	77373	77539	817.205	0.01495361	818.595	1.404968	1.390015	77540	77574	818.595	1.404968	818.89	1.699951	0.2949829	74877	75237	796.34	1.669983	799.345	4.674988	3.005005	77575	77575	818.89	1.699951	818.895	1.704956	0.005004883	-1	-1	-1	-1	-1	-1	-1
0001	13	Session_08_01_24__11_06_08_0001	AV_Detection	4	120	30	0	0	0	0	null	False	1.877454	0.5	3	(0.0, 0.0, 0.0)	(0.0, 0.0, 0.0)	0	3	6	a	0.2893066	0	77577	77577	818.905	1.714966	818.915	1.724976	0.01000977	77578	77580	818.915	1.724976	818.94	1.75	0.02502441	77581	77581	818.94	1.75	818.945	0.005004883	0.005004883	77844	77844	821.13	2.190002	-1	-1	-1	-1	-1	-1	-1	-1	-1	-1	-1	-1	-1	-1	-1	-1	-1	77582	77807	818.945	0.005004883	820.83	1.889954	1.884949	77808	77842	820.83	1.889954	821.12	2.179993	0.2900391	74877	75237	796.34	1.669983	799.345	4.674988	3.005005	77843	77843	821.12	2.179993	821.13	2.190002	0.01000977	-1	-1	-1	-1	-1	-1	-1
0001	13	Session_08_01_24__11_06_08_0001	AV_Detection	5	121	1	0	0	0	0	null	False	1.83949	0.5	3	(0.0, 0.0, 0.0)	(0.0, 0.0, 0.0)	1	3	6	a	0.2628174	0	78503	78503	826.645	7.704956	826.655	7.714966	0.01000977	78504	78506	826.655	7.714966	826.715	7.774963	0.05999756	78507	78507	826.715	7.774963	826.72	0.005004883	0.005004883	78762	78762	828.84	2.125	-1	-1	-1	-1	-1	-1	-1	-1	-1	-1	-1	-1	-1	-1	-1	-1	-1	78508	78728	826.72	0.005004883	828.565	1.850037	1.845032	78729	78760	828.565	1.850037	828.83	2.11499	0.2649536	74877	75237	796.34	1.669983	799.345	4.674988	3.005005	78761	78761	828.83	2.11499	828.84	2.125	0.01000977	-1	-1	-1	-1	-1	-1	-1
0001	13	Session_08_01_24__11_06_08_0001	AV_Detection	5	122	2	0	0	0	0	null	False	1.734975	0.5	3	(0.0, 0.0, 0.0)	(0.0, 0.0, 0.0)	2	null	6	a	0.2394409	0	78763	78763	828.845	2.130005	828.855	2.140015	0.01000977	78764	78765	828.855	2.140015	828.88	2.165039	0.02502441	78766	78766	828.88	2.165039	828.89	0.00994873	0.00994873	79006	79006	830.88	2	-1	-1	-1	-1	-1	-1	-1	-1	-1	-1	-1	-1	-1	-1	-1	-1	-1	78767	78975	828.89	0.00994873	830.63	1.75	1.740051	78976	79004	830.63	1.75	830.87	1.98999	0.2399902	74877	75237	796.34	1.669983	799.345	4.674988	3.005005	79005	79005	830.87	1.98999	830.88	2	0.01000977	-1	-1	-1	-1	-1	-1	-1
0001	13	Session_08_01_24__11_06_08_0001	AV_Detection	5	123	3	0	0	0	0	null	False	1.792965	0.5	3	(0.0, 0.0, 0.0)	(0.0, 0.0, 0.0)	null	5	6	a	0.5230713	0	79007	79007	830.89	2.009949	830.895	2.014954	0.005004883	79008	79009	830.895	2.014954	830.92	2.039978	0.02502441	79010	79010	830.92	2.039978	830.93	0.01000977	0.01000977	79317	79317	833.49	2.570007	-1	-1	-1	-1	-1	-1	-1	-1	-1	-1	-1	-1	-1	-1	-1	-1	-1	79011	79226	830.93	0.01000977	832.73	1.809998	1.799988	79227	79286	832.73	1.809998	833.24	2.320007	0.5100098	79287	79315	833.24	2.320007	833.48	2.559998	0.2399902	79316	79316	833.48	2.559998	833.49	2.570007	0.01000977	-1	-1	-1	-1	-1	-1	-1
0001	13	Session_08_01_24__11_06_08_0001	AV_Detection	5	124	4	0	0	0	0	null	False	1.26173	0.5	3	(0.0, 0.0, 0.0)	(0.0, 0.0, 0.0)	1	4	6	a	null	0	79318	79318	833.495	2.575012	833.505	2.585022	0.01000977	79319	79321	833.505	2.585022	833.54	2.619995	0.03497314	79322	79322	833.54	2.619995	833.545	0.005004883	0.005004883	79383	79383	834.045	0.5050049	-1	-1	-1	-1	-1	-1	-1	-1	-1	-1	-1	-1	-1	-1	-1	-1	-1	79323	79381	833.545	0.005004883	834.04	0.5	0.4949951	79227	79286	832.73	1.809998	833.24	2.320007	0.5100098	79287	79315	833.24	2.320007	833.48	2.559998	0.2399902	79382	79382	834.04	0.5	834.045	0.5050049	0.005004883	-1	-1	-1	-1	-1	-1	-1
0001	13	Session_08_01_24__11_06_08_0001	AV_Detection	5	125	5	0	0	0	0	null	False	1.427467	0.5	3	(0.0, 0.0, 0.0)	(0.0, 0.0, 0.0)	0	null	6	a	0.2648315	0	79384	79384	834.055	0.5150146	834.065	0.5250244	0.01000977	79385	79386	834.065	0.5250244	834.09	0.5499878	0.02496338	79387	79387	834.09	0.5499878	834.095	0.005004883	0.005004883	79593	79593	835.805	1.715027	-1	-1	-1	-1	-1	-1	-1	-1	-1	-1	-1	-1	-1	-1	-1	-1	-1	79388	79559	834.095	0.005004883	835.53	1.440002	1.434998	79560	79591	835.53	1.440002	835.795	1.705017	0.2650146	79287	79315	833.24	2.320007	833.48	2.559998	0.2399902	79592	79592	835.795	1.705017	835.805	1.715027	0.01000977	-1	-1	-1	-1	-1	-1	-1
0001	13	Session_08_01_24__11_06_08_0001	AV_Detection	5	126	6	0	0	0	0	null	False	1.680588	0.5	3	(0.0, 0.0, 0.0)	(0.0, 0.0, 0.0)	0	null	6	a	0.3146362	0	79594	79594	835.815	1.725037	835.82	1.730042	0.005004883	79595	79596	835.82	1.730042	835.84	1.75	0.0199585	79597	79597	835.84	1.75	835.845	0.005004883	0.005004883	79838	79838	837.855	2.015015	-1	-1	-1	-1	-1	-1	-1	-1	-1	-1	-1	-1	-1	-1	-1	-1	-1	79598	79799	835.845	0.005004883	837.53	1.690002	1.684998	79800	79836	837.53	1.690002	837.845	2.005005	0.3150024	79287	79315	833.24	2.320007	833.48	2.559998	0.2399902	79837	79837	837.845	2.005005	837.855	2.015015	0.01000977	-1	-1	-1	-1	-1	-1	-1
0001	13	Session_08_01_24__11_06_08_0001	AV_Detection	5	127	7	0	0	0	0	null	False	1.87333	0.5	3	(0.0, 0.0, 0.0)	(0.0, 0.0, 0.0)	1	3	6	a	0.2830811	0	79839	79839	837.865	2.025024	837.87	2.030029	0.005004883	79840	79842	837.87	2.030029	837.905	2.065002	0.03497314	79843	79843	837.905	2.065002	837.915	0.01000977	0.01000977	80105	80105	840.09	2.184998	-1	-1	-1	-1	-1	-1	-1	-1	-1	-1	-1	-1	-1	-1	-1	-1	-1	79844	80069	837.915	0.01000977	839.795	1.890015	1.880005	80070	80103	839.795	1.890015	840.08	2.174988	0.2849731	79287	79315	833.24	2.320007	833.48	2.559998	0.2399902	80104	80104	840.08	2.174988	840.09	2.184998	0.01000977	-1	-1	-1	-1	-1	-1	-1
0001	13	Session_08_01_24__11_06_08_0001	AV_Detection	5	128	8	0	0	0	0	null	False	1.489507	0.5	3	(0.0, 0.0, 0.0)	(0.0, 0.0, 0.0)	1	null	6	a	0.4296875	0	80106	80106	840.095	2.190002	840.105	2.200012	0.01000977	80107	80108	840.105	2.200012	840.12	2.215027	0.01501465	80109	80109	840.12	2.215027	840.14	0.0199585	0.0199585	80342	80342	842.08	1.959961	-1	-1	-1	-1	-1	-1	-1	-1	-1	-1	-1	-1	-1	-1	-1	-1	-1	80110	80289	840.14	0.0199585	841.64	1.519958	1.5	80290	80340	841.64	1.519958	842.07	1.950012	0.4300537	79287	79315	833.24	2.320007	833.48	2.559998	0.2399902	80341	80341	842.07	1.950012	842.08	1.959961	0.00994873	-1	-1	-1	-1	-1	-1	-1
0001	13	Session_08_01_24__11_06_08_0001	AV_Detection	5	129	9	0	0	0	0	null	False	1.971259	0.5	3	(0.0, 0.0, 0.0)	(0.0, 0.0, 0.0)	2	null	6	a	0.2330933	0	80343	80343	842.09	1.969971	842.095	1.974976	0.005004883	80344	80345	842.095	1.974976	842.115	1.994995	0.02001953	80346	80346	842.115	1.994995	842.12	0.005004883	0.005004883	80611	80611	844.34	2.224976	-1	-1	-1	-1	-1	-1	-1	-1	-1	-1	-1	-1	-1	-1	-1	-1	-1	80347	80582	842.12	0.005004883	844.095	1.97998	1.974976	80583	80609	844.095	1.97998	844.33	2.214966	0.2349854	79287	79315	833.24	2.320007	833.48	2.559998	0.2399902	80610	80610	844.33	2.214966	844.34	2.224976	0.01000977	-1	-1	-1	-1	-1	-1	-1
0001	13	Session_08_01_24__11_06_08_0001	AV_Detection	5	130	10	0	0	0	0	null	False	1.297948	0.5	3	(0.0, 0.0, 0.0)	(0.0, 0.0, 0.0)	null	4	6	a	0.5330811	0	80612	80612	844.355	2.23999	844.365	2.25	0.01000977	80613	80614	844.365	2.25	844.39	2.274963	0.02496338	80615	80615	844.39	2.274963	844.395	0.005004883	0.005004883	80863	80863	846.455	2.065002	-1	-1	-1	-1	-1	-1	-1	-1	-1	-1	-1	-1	-1	-1	-1	-1	-1	80616	80771	844.395	0.005004883	845.695	1.305054	1.300049	80772	80832	845.695	1.305054	846.205	1.815002	0.5099487	80833	80861	846.205	1.815002	846.445	2.055054	0.2400513	80862	80862	846.445	2.055054	846.455	2.065002	0.00994873	-1	-1	-1	-1	-1	-1	-1
0001	13	Session_08_01_24__11_06_08_0001	AV_Detection	5	131	11	0	0	0	0	null	False	1.017072	0.5	3	(0.0, 0.0, 0.0)	(0.0, 0.0, 0.0)	null	5	6	a	0.3898315	0	80864	80864	846.465	2.075012	846.47	2.080017	0.005004883	80865	80866	846.47	2.080017	846.495	2.105042	0.02502441	80867	80867	846.495	2.105042	846.505	0.01000977	0.01000977	81039	81039	847.93	1.434998	-1	-1	-1	-1	-1	-1	-1	-1	-1	-1	-1	-1	-1	-1	-1	-1	-1	80868	80990	846.505	0.01000977	847.53	1.034973	1.024963	80991	81037	847.53	1.034973	847.92	1.424988	0.3900146	80833	80861	846.205	1.815002	846.445	2.055054	0.2400513	81038	81038	847.92	1.424988	847.93	1.434998	0.01000977	-1	-1	-1	-1	-1	-1	-1
0001	13	Session_08_01_24__11_06_08_0001	AV_Detection	5	132	12	0	0	0	0	null	False	1.117015	0.5	3	(0.0, 0.0, 0.0)	(0.0, 0.0, 0.0)	1	null	6	a	0.2481689	0	81040	81040	847.94	1.445007	847.945	1.450012	0.005004883	81041	81042	847.945	1.450012	847.97	1.474976	0.02496338	81043	81043	847.97	1.474976	847.98	0.01000977	0.01000977	81206	81206	849.365	1.39502	-1	-1	-1	-1	-1	-1	-1	-1	-1	-1	-1	-1	-1	-1	-1	-1	-1	81044	81177	847.98	0.01000977	849.105	1.13501	1.125	81178	81204	849.105	1.13501	849.355	1.38501	0.25	80833	80861	846.205	1.815002	846.445	2.055054	0.2400513	81205	81205	849.355	1.38501	849.365	1.39502	0.01000977	-1	-1	-1	-1	-1	-1	-1
0001	13	Session_08_01_24__11_06_08_0001	AV_Detection	5	133	13	0	0	0	0	null	False	1.785693	0.5	3	(0.0, 0.0, 0.0)	(0.0, 0.0, 0.0)	0	4	6	a	0.3565674	0	81207	81207	849.37	1.400024	849.38	1.410034	0.01000977	81208	81210	849.38	1.410034	849.405	1.434998	0.02496338	81211	81211	849.405	1.434998	849.415	0.01000977	0.01000977	81471	81471	851.57	2.165039	-1	-1	-1	-1	-1	-1	-1	-1	-1	-1	-1	-1	-1	-1	-1	-1	-1	81212	81426	849.415	0.01000977	851.205	1.799988	1.789978	81427	81469	851.205	1.799988	851.565	2.160034	0.3600464	80833	80861	846.205	1.815002	846.445	2.055054	0.2400513	81470	81470	851.565	2.160034	851.57	2.165039	0.005004883	-1	-1	-1	-1	-1	-1	-1
0001	13	Session_08_01_24__11_06_08_0001	AV_Detection	5	134	14	0	0	0	0	null	False	1.830971	0.5	3	(0.0, 0.0, 0.0)	(0.0, 0.0, 0.0)	2	3	6	a	0.2382813	0	81472	81472	851.58	2.174988	851.59	2.184998	0.01000977	81473	81475	851.59	2.184998	851.62	2.215027	0.0300293	81476	81476	851.62	2.215027	851.63	0.01000977	0.01000977	81727	81727	853.715	2.094971	-1	-1	-1	-1	-1	-1	-1	-1	-1	-1	-1	-1	-1	-1	-1	-1	-1	81477	81696	851.63	0.01000977	853.465	1.844971	1.834961	81697	81725	853.465	1.844971	853.705	2.084961	0.2399902	80833	80861	846.205	1.815002	846.445	2.055054	0.2400513	81726	81726	853.705	2.084961	853.715	2.094971	0.01000977	-1	-1	-1	-1	-1	-1	-1
0001	13	Session_08_01_24__11_06_08_0001	AV_Detection	5	135	15	0	0	0	0	null	False	1.248914	0.5	3	(0.0, 0.0, 0.0)	(0.0, 0.0, 0.0)	null	5	6	a	0.4882813	0	81728	81728	853.72	2.099976	853.73	2.109985	0.01000977	81729	81730	853.73	2.109985	853.745	2.125	0.01501465	81731	81731	853.745	2.125	853.755	0.01000977	0.01000977	81943	81943	855.515	1.769958	-1	-1	-1	-1	-1	-1	-1	-1	-1	-1	-1	-1	-1	-1	-1	-1	-1	81732	81882	853.755	0.01000977	855.015	1.269958	1.259949	81883	81941	855.015	1.269958	855.505	1.76001	0.4900513	80833	80861	846.205	1.815002	846.445	2.055054	0.2400513	81942	81942	855.505	1.76001	855.515	1.769958	0.00994873	-1	-1	-1	-1	-1	-1	-1
0001	13	Session_08_01_24__11_06_08_0001	AV_Detection	5	136	16	0	0	0	0	null	False	1.272824	0.5	3	(0.0, 0.0, 0.0)	(0.0, 0.0, 0.0)	0	3	6	a	0.3950195	0	81944	81944	855.52	1.774963	855.53	1.784973	0.01000977	81945	81947	855.53	1.784973	855.555	1.809998	0.02502441	81948	81948	855.555	1.809998	855.565	0.01000977	0.01000977	82152	82152	857.255	1.700012	-1	-1	-1	-1	-1	-1	-1	-1	-1	-1	-1	-1	-1	-1	-1	-1	-1	81949	82102	855.565	0.01000977	856.85	1.294983	1.284973	82103	82150	856.85	1.294983	857.245	1.690002	0.3950195	80833	80861	846.205	1.815002	846.445	2.055054	0.2400513	82151	82151	857.245	1.690002	857.255	1.700012	0.01000977	-1	-1	-1	-1	-1	-1	-1
0001	13	Session_08_01_24__11_06_08_0001	AV_Detection	5	137	17	0	0	0	0	null	False	1.827005	0.5	3	(0.0, 0.0, 0.0)	(0.0, 0.0, 0.0)	2	4	6	a	0.3383789	0	82153	82153	857.265	1.709961	857.27	1.714966	0.005004883	82154	82156	857.27	1.714966	857.295	1.73999	0.02502441	82157	82157	857.295	1.73999	857.305	0.01000977	0.01000977	82419	82419	859.49	2.195007	-1	-1	-1	-1	-1	-1	-1	-1	-1	-1	-1	-1	-1	-1	-1	-1	-1	82158	82377	857.305	0.01000977	859.14	1.844971	1.834961	82378	82417	859.14	1.844971	859.48	2.184998	0.3400269	80833	80861	846.205	1.815002	846.445	2.055054	0.2400513	82418	82418	859.48	2.184998	859.49	2.195007	0.01000977	-1	-1	-1	-1	-1	-1	-1
0001	13	Session_08_01_24__11_06_08_0001	AV_Detection	5	138	18	0	0	0	0	null	False	1.168005	0.5	3	(0.0, 0.0, 0.0)	(0.0, 0.0, 0.0)	null	5	6	a	0.5552368	0	82420	82420	859.5	2.205017	859.505	2.210022	0.005004883	82421	82422	859.505	2.210022	859.53	2.234985	0.02496338	82423	82423	859.53	2.234985	859.54	0.01000977	0.01000977	82656	82656	861.475	1.945007	-1	-1	-1	-1	-1	-1	-1	-1	-1	-1	-1	-1	-1	-1	-1	-1	-1	82424	82564	859.54	0.01000977	860.715	1.184998	1.174988	82565	82625	860.715	1.184998	861.225	1.695007	0.5100098	82626	82654	861.225	1.695007	861.465	1.934998	0.2399902	82655	82655	861.465	1.934998	861.475	1.945007	0.01000977	-1	-1	-1	-1	-1	-1	-1
0001	13	Session_08_01_24__11_06_08_0001	AV_Detection	5	139	19	0	0	0	0	null	False	1.835967	0.5	3	(0.0, 0.0, 0.0)	(0.0, 0.0, 0.0)	null	3	6	a	1.006775	0	82657	82657	861.48	1.950012	861.49	1.960022	0.01000977	82658	82659	861.49	1.960022	861.505	1.975037	0.01501465	82660	82660	861.505	1.975037	861.515	0.00994873	0.00994873	83027	83027	864.565	3.059998	-1	-1	-1	-1	-1	-1	-1	-1	-1	-1	-1	-1	-1	-1	-1	-1	-1	82661	82881	861.515	0.00994873	863.355	1.849976	1.840027	82882	82942	863.355	1.849976	863.865	2.359985	0.5100098	82943	83025	863.865	2.359985	864.555	3.049988	0.6900024	83026	83026	864.555	3.049988	864.565	3.059998	0.01000977	-1	-1	-1	-1	-1	-1	-1
0001	13	Session_08_01_24__11_06_08_0001	AV_Detection	5	140	20	0	0	0	0	null	False	1.329568	0.5	3	(0.0, 0.0, 0.0)	(0.0, 0.0, 0.0)	0	null	6	a	0.295166	0	83028	83028	864.575	3.069946	864.58	3.074951	0.005004883	83029	83030	864.58	3.074951	864.605	3.099976	0.02502441	83031	83031	864.605	3.099976	864.615	0.01000977	0.01000977	83229	83229	866.255	1.650024	-1	-1	-1	-1	-1	-1	-1	-1	-1	-1	-1	-1	-1	-1	-1	-1	-1	83032	83191	864.615	0.01000977	865.95	1.344971	1.334961	83192	83227	865.95	1.344971	866.25	1.64502	0.3000488	82943	83025	863.865	2.359985	864.555	3.049988	0.6900024	83228	83228	866.25	1.64502	866.255	1.650024	0.005004883	-1	-1	-1	-1	-1	-1	-1
0001	13	Session_08_01_24__11_06_08_0001	AV_Detection	5	141	21	0	0	0	0	null	False	1.895362	0.5	3	(0.0, 0.0, 0.0)	(0.0, 0.0, 0.0)	2	null	6	a	0.340271	0	83230	83230	866.265	1.659973	866.275	1.669983	0.01000977	83231	83232	866.275	1.669983	866.29	1.684998	0.01501465	83233	83233	866.29	1.684998	866.3	0.01000977	0.01000977	83504	83504	868.555	2.265015	-1	-1	-1	-1	-1	-1	-1	-1	-1	-1	-1	-1	-1	-1	-1	-1	-1	83234	83462	866.3	0.01000977	868.205	1.914978	1.904968	83463	83502	868.205	1.914978	868.55	2.26001	0.3450317	82943	83025	863.865	2.359985	864.555	3.049988	0.6900024	83503	83503	868.55	2.26001	868.555	2.265015	0.005004883	-1	-1	-1	-1	-1	-1	-1
0001	13	Session_08_01_24__11_06_08_0001	AV_Detection	5	142	22	0	0	0	0	null	False	1.236226	0.5	3	(0.0, 0.0, 0.0)	(0.0, 0.0, 0.0)	1	null	6	a	0.3552246	0	83505	83505	868.565	2.275024	868.575	2.284973	0.00994873	83506	83507	868.575	2.284973	868.59	2.299988	0.01501465	83508	83508	868.59	2.299988	868.6	0.01000977	0.01000977	83698	83698	870.205	1.61499	-1	-1	-1	-1	-1	-1	-1	-1	-1	-1	-1	-1	-1	-1	-1	-1	-1	83509	83655	868.6	0.01000977	869.84	1.25	1.23999	83656	83696	869.84	1.25	870.2	1.609985	0.3599854	82943	83025	863.865	2.359985	864.555	3.049988	0.6900024	83697	83697	870.2	1.609985	870.205	1.61499	0.005004883	-1	-1	-1	-1	-1	-1	-1
0001	13	Session_08_01_24__11_06_08_0001	AV_Detection	5	143	23	0	0	0	0	null	False	1.831826	0.5	3	(0.0, 0.0, 0.0)	(0.0, 0.0, 0.0)	2	5	6	a	0.2402954	0	83699	83699	870.215	1.625	870.225	1.63501	0.01000977	83700	83702	870.225	1.63501	870.255	1.665039	0.0300293	83703	83703	870.255	1.665039	870.265	0.00994873	0.00994873	83955	83955	872.355	2.099976	-1	-1	-1	-1	-1	-1	-1	-1	-1	-1	-1	-1	-1	-1	-1	-1	-1	83704	83924	870.265	0.00994873	872.105	1.849976	1.840027	83925	83953	872.105	1.849976	872.35	2.094971	0.2449951	82943	83025	863.865	2.359985	864.555	3.049988	0.6900024	83954	83954	872.35	2.094971	872.355	2.099976	0.005004883	-1	-1	-1	-1	-1	-1	-1
0001	13	Session_08_01_24__11_06_08_0001	AV_Detection	5	144	24	0	0	0	0	null	False	1.238552	0.5	3	(0.0, 0.0, 0.0)	(0.0, 0.0, 0.0)	1	null	6	a	0.303833	0	83956	83956	872.365	2.109985	872.375	2.119995	0.01000977	83957	83958	872.375	2.119995	872.39	2.134949	0.01495361	83959	83959	872.39	2.134949	872.4	0.01000977	0.01000977	84148	84148	873.965	1.575012	-1	-1	-1	-1	-1	-1	-1	-1	-1	-1	-1	-1	-1	-1	-1	-1	-1	83960	84109	872.4	0.01000977	873.65	1.26001	1.25	84110	84146	873.65	1.26001	873.955	1.565002	0.3049927	82943	83025	863.865	2.359985	864.555	3.049988	0.6900024	84147	84147	873.955	1.565002	873.965	1.575012	0.01000977	-1	-1	-1	-1	-1	-1	-1
0001	13	Session_08_01_24__11_06_08_0001	AV_Detection	5	145	25	0	0	0	0	null	False	1.330084	0.5	3	(0.0, 0.0, 0.0)	(0.0, 0.0, 0.0)	0	5	6	a	0.2286987	0	84149	84149	873.975	1.585022	873.98	1.590027	0.005004883	84150	84152	873.98	1.590027	874.005	1.615051	0.02502441	84153	84153	874.005	1.615051	874.015	0.00994873	0.00994873	84343	84343	875.59	1.584961	-1	-1	-1	-1	-1	-1	-1	-1	-1	-1	-1	-1	-1	-1	-1	-1	-1	84154	84313	874.015	0.00994873	875.35	1.344971	1.335022	84314	84341	875.35	1.344971	875.58	1.574951	0.2299805	82943	83025	863.865	2.359985	864.555	3.049988	0.6900024	84342	84342	875.58	1.574951	875.59	1.584961	0.01000977	-1	-1	-1	-1	-1	-1	-1
0001	13	Session_08_01_24__11_06_08_0001	AV_Detection	5	146	26	0	0	0	0	null	False	1.251104	0.5	3	(0.0, 0.0, 0.0)	(0.0, 0.0, 0.0)	null	3	6	a	0.5203857	0	84344	84344	875.6	1.594971	875.605	1.599976	0.005004883	84345	84346	875.605	1.599976	875.63	1.625	0.02502441	84347	84347	875.63	1.625	875.64	0.00994873	0.00994873	84585	84585	877.615	1.984985	-1	-1	-1	-1	-1	-1	-1	-1	-1	-1	-1	-1	-1	-1	-1	-1	-1	84348	84498	875.64	0.00994873	876.9	1.269958	1.26001	84499	84559	876.9	1.269958	877.405	1.774963	0.5050049	84560	84583	877.405	1.774963	877.605	1.974976	0.2000122	84584	84584	877.605	1.974976	877.615	1.984985	0.01000977	-1	-1	-1	-1	-1	-1	-1
0001	13	Session_08_01_24__11_06_08_0001	AV_Detection	5	147	27	0	0	0	0	null	False	1.112016	0.5	3	(0.0, 0.0, 0.0)	(0.0, 0.0, 0.0)	null	4	6	a	0.3621216	0	84586	84586	877.625	1.994995	877.63	2	0.005004883	84587	84588	877.63	2	877.65	2.019958	0.0199585	84589	84589	877.65	2.019958	877.655	0.005004883	0.005004883	84769	84769	879.15	1.5	-1	-1	-1	-1	-1	-1	-1	-1	-1	-1	-1	-1	-1	-1	-1	-1	-1	84590	84723	877.655	0.005004883	878.775	1.125	1.119995	84724	84767	878.775	1.125	879.14	1.48999	0.3649902	84560	84583	877.405	1.774963	877.605	1.974976	0.2000122	84768	84768	879.14	1.48999	879.15	1.5	0.01000977	-1	-1	-1	-1	-1	-1	-1
0001	13	Session_08_01_24__11_06_08_0001	AV_Detection	5	148	28	0	0	0	0	null	False	1.773623	0.5	3	(0.0, 0.0, 0.0)	(0.0, 0.0, 0.0)	1	5	6	a	0.2154541	0	84770	84770	879.155	1.505005	879.165	1.515015	0.01000977	84771	84773	879.165	1.515015	879.19	1.540039	0.02502441	84774	84774	879.19	1.540039	879.2	0.00994873	0.00994873	85015	85015	881.205	2.014954	-1	-1	-1	-1	-1	-1	-1	-1	-1	-1	-1	-1	-1	-1	-1	-1	-1	84775	84987	879.2	0.00994873	880.98	1.789978	1.780029	84988	85013	880.98	1.789978	881.2	2.009949	0.2199707	84560	84583	877.405	1.774963	877.605	1.974976	0.2000122	85014	85014	881.2	2.009949	881.205	2.014954	0.005004883	-1	-1	-1	-1	-1	-1	-1
0001	13	Session_08_01_24__11_06_08_0001	AV_Detection	5	149	29	0	0	0	0	null	False	1.261046	0.5	3	(0.0, 0.0, 0.0)	(0.0, 0.0, 0.0)	null	3	6	a	0.4472046	0	85016	85016	881.215	2.024963	881.225	2.034973	0.01000977	85017	85018	881.225	2.034973	881.24	2.049988	0.01501465	85019	85019	881.24	2.049988	881.25	0.01000977	0.01000977	85227	85227	882.975	1.734985	-1	-1	-1	-1	-1	-1	-1	-1	-1	-1	-1	-1	-1	-1	-1	-1	-1	85020	85171	881.25	0.01000977	882.515	1.274963	1.264954	85172	85225	882.515	1.274963	882.965	1.724976	0.4500122	84560	84583	877.405	1.774963	877.605	1.974976	0.2000122	85226	85226	882.965	1.724976	882.975	1.734985	0.01000977	-1	-1	-1	-1	-1	-1	-1
0001	13	Session_08_01_24__11_06_08_0001	AV_Detection	5	150	30	0	0	0	0	null	False	1.456897	0.5	3	(0.0, 0.0, 0.0)	(0.0, 0.0, 0.0)	null	4	6	a	0.3804932	0	85228	85228	882.98	1.73999	882.99	1.75	0.01000977	85229	85230	882.99	1.75	883.005	1.765015	0.01501465	85231	85231	883.005	1.765015	883.025	0.0199585	0.0199585	85455	85455	884.88	1.875	-1	-1	-1	-1	-1	-1	-1	-1	-1	-1	-1	-1	-1	-1	-1	-1	-1	85232	85407	883.025	0.0199585	884.49	1.484985	1.465027	85408	85453	884.49	1.484985	884.875	1.869995	0.3850098	84560	84583	877.405	1.774963	877.605	1.974976	0.2000122	85454	85454	884.875	1.869995	884.88	1.875	0.005004883	-1	-1	-1	-1	-1	-1	-1
0001	13	Session_08_01_24__11_06_08_0001	AV_Detection	6	151	1	0	0	0	0	null	False	1.829453	0.5	3	(0.0, 0.0, 0.0)	(0.0, 0.0, 0.0)	null	5	6	a	0.4307861	0	86077	86077	890.1	7.094971	890.105	7.099976	0.005004883	86078	86079	890.105	7.099976	890.14	7.134949	0.03497314	86080	86080	890.14	7.134949	890.15	0.01000977	0.01000977	86355	86355	892.43	2.290039	-1	-1	-1	-1	-1	-1	-1	-1	-1	-1	-1	-1	-1	-1	-1	-1	-1	86081	86301	890.15	0.01000977	891.99	1.850037	1.840027	86302	86353	891.99	1.850037	892.425	2.285034	0.4349976	84560	84583	877.405	1.774963	877.605	1.974976	0.2000122	86354	86354	892.425	2.285034	892.43	2.290039	0.005004883	-1	-1	-1	-1	-1	-1	-1
0001	13	Session_08_01_24__11_06_08_0001	AV_Detection	6	152	2	0	0	0	0	null	False	1.1436	0.5	3	(0.0, 0.0, 0.0)	(0.0, 0.0, 0.0)	0	3	6	a	0.3807983	0	86356	86356	892.44	2.300049	892.45	2.309998	0.00994873	86357	86359	892.45	2.309998	892.48	2.340027	0.0300293	86360	86360	892.48	2.340027	892.49	0.01000977	0.01000977	86545	86545	894.03	1.549988	-1	-1	-1	-1	-1	-1	-1	-1	-1	-1	-1	-1	-1	-1	-1	-1	-1	86361	86498	892.49	0.01000977	893.64	1.159973	1.149963	86499	86543	893.64	1.159973	894.025	1.544983	0.3850098	84560	84583	877.405	1.774963	877.605	1.974976	0.2000122	86544	86544	894.025	1.544983	894.03	1.549988	0.005004883	-1	-1	-1	-1	-1	-1	-1
0001	13	Session_08_01_24__11_06_08_0001	AV_Detection	6	153	3	0	0	0	0	null	False	1.69628	0.5	3	(0.0, 0.0, 0.0)	(0.0, 0.0, 0.0)	null	3	6	a	0.4074097	0	86546	86546	894.04	1.559998	894.05	1.570007	0.01000977	86547	86548	894.05	1.570007	894.065	1.585022	0.01501465	86549	86549	894.065	1.585022	894.08	0.01495361	0.01495361	86804	86804	896.2	2.134949	-1	-1	-1	-1	-1	-1	-1	-1	-1	-1	-1	-1	-1	-1	-1	-1	-1	86550	86753	894.08	0.01495361	895.78	1.714966	1.700012	86754	86802	895.78	1.714966	896.19	2.125	0.4100342	84560	84583	877.405	1.774963	877.605	1.974976	0.2000122	86803	86803	896.19	2.125	896.2	2.134949	0.00994873	-1	-1	-1	-1	-1	-1	-1
